//--------- NEW START ---------//
// Drifter number: 1, Battery: 0.00
// IMU_update: 40 ms, GPS_update: 250 ms, Transciever_update: 8000 ms
// Accel_range: 16G, Gyro_range: 2000 dps
IMUtime, Ax, Ay, Az, Gx, Gy, Gz, Mx, My, Mz, P, T
8435, 169.00000, -1552.00000, 1167.00000, -0.56610, 9.46655, -71.74683, -91.64350, -36.32850, 0.74750,
8449, 197.00000, -1572.00000, 1166.00000, -3.92303, 9.52759, -79.49829, -91.64350, -36.32850, 0.74750,
8458, 222.00000, -1656.00000, 1184.00000, -6.36444, 10.38208, -89.75220, -91.34450, -36.02950, -1.94350,
8468, 244.00000, -1715.00000, 1213.00000, -6.91376, 12.15210, -101.10474, -91.34450, -36.02950, -1.94350,
8476, 277.00000, -1701.00000, 1225.00000, -8.98895, 13.86108, -105.37720, -91.34450, -36.02950, -1.94350,
8483, 344.00000, -1909.00000, 1182.00000, -13.99384, 14.83765, -96.03882, -91.34450, -36.02950, -1.94350,
8490, 364.00000, -1841.00000, 1241.00000, -31.02264, 13.06763, -65.64331, -91.34450, -36.02950, -1.94350,
8497, 324.00000, -1792.00000, 1173.00000, -37.91962, 10.44312, -44.28101, -91.34450, -36.02950, -1.94350,
8506, 280.00000, -1736.00000, 1138.00000, -42.86346, 5.74341, -25.23804, -92.83950, -32.29200, -1.19600,
8515, 264.00000, -1659.00000, 1105.00000, -42.07001, -1.15356, -18.34106, -92.83950, -32.29200, -1.19600,
8520, 275.00000, -1650.00000, 1089.00000, -39.01825, -4.32739, -20.11108, -92.83950, -32.29200, -1.19600,
8529, 281.00000, -1703.00000, 1079.00000, -30.41229, -6.89087, -26.64185, -92.83950, -32.29200, -1.19600,
8535, 279.00000, -1749.00000, 1086.00000, -20.28046, -7.98950, -33.47778, -92.83950, -32.29200, -1.19600,
8545, 273.00000, -1834.00000, 1126.00000, 0.53253, -8.66089, -43.24341, -92.83950, -32.29200, -1.19600,
8552, 289.00000, -1867.00000, 1177.00000, 13.83820, -7.80640, -46.23413, -92.24150, -32.89000, -3.88700,
8559, 232.00000, -1812.00000, 1312.00000, 32.88116, -1.45874, -42.63306, -92.24150, -32.89000, -3.88700,
8567, 336.00000, -1727.00000, 1338.00000, 44.78302, 2.08130, -45.01343, -92.24150, -32.89000, -3.88700,
8574, 357.00000, -1631.00000, 1327.00000, 51.25275, 5.74341, -56.48804, -92.24150, -32.89000, -3.88700,
8584, 443.00000, -1557.00000, 1298.00000, 49.90997, 10.62622, -81.63452, -92.24150, -32.89000, -3.88700,
8590, 488.00000, -1557.00000, 1311.00000, 49.29962, 14.16626, -94.57397, -92.24150, -32.89000, -3.88700,
8598, 518.00000, -1592.00000, 1377.00000, 49.60480, 19.96460, -113.61694, -94.63350, -29.60100, -1.49500,
8604, 536.00000, -1616.00000, 1410.00000, 50.03204, 23.19946, -126.12915, -94.63350, -29.60100, -1.49500,
8615, 583.00000, -1655.00000, 1416.00000, 49.72687, 30.03540, -150.36011, -94.63350, -29.60100, -1.49500,
8622, 608.00000, -1677.00000, 1400.00000, 48.20099, 35.22339, -162.01782, -94.63350, -29.60100, -1.49500,
8629, 617.00000, -1667.00000, 1365.00000, 46.12579, 41.69312, -167.63306, -94.63350, -29.60100, -1.49500,
8636, 608.00000, -1636.00000, 1336.00000, 46.73615, 46.20972, -162.32300, -94.63350, -29.60100, -1.49500,
8643, 580.00000, -1563.00000, 1334.00000, 50.88654, 49.56665, -146.27075, -94.63350, -29.60100, -1.49500,
8653, 535.00000, -1442.00000, 1327.00000, 54.30450, 53.77808, -112.76245, -94.48400, -24.96650, 1.04650,
8659, 518.00000, -1383.00000, 1296.00000, 51.92413, 54.20532, -95.06226, -94.48400, -24.96650, 1.04650,
8668, 466.00000, -1325.00000, 1197.00000, 46.36993, 57.25708, -74.92065, -94.48400, -24.96650, 1.04650,
8674, 442.00000, -1303.00000, 1143.00000, 45.08820, 62.75024, -65.64331, -94.48400, -24.96650, 1.04650,
8682, 413.00000, -1258.00000, 1042.00000, 48.99445, 79.90112, -57.89185, -94.48400, -24.96650, 1.04650,
8691, 252.00000, -998.00000, 249.00000, 167.76886, 262.70142, -35.49194, -95.38100, -19.88350, 5.83050,
8719, 384.00000, -785.00000, 281.00000, 202.61993, 302.80151, -29.57153, -95.38100, -19.88350, 5.83050,
8726, 936.00000, -1631.00000, 1481.00000, 292.34161, 353.46069, -27.67944, -95.38100, -19.88350, 5.83050,
8733, 494.00000, -2319.00000, 1881.00000, 420.94269, 381.17065, -68.87817, -95.38100, -19.88350, 5.83050,
8741, 80.00000, -1424.00000, 2886.00000, 504.19461, 396.91772, -115.32593, -95.38100, -19.88350, 5.83050,
8749, -192.00000, -1003.00000, 2841.00000, 431.80695, 312.75024, -128.81470, -95.38100, -19.88350, 5.83050,
8758, -194.00000, -640.00000, 2615.00000, 391.27960, 246.16089, -86.51733, -95.38100, -19.88350, 5.83050,
8764, -356.00000, -303.00000, 2731.00000, 305.03693, 194.40308, -57.83081, -95.38100, -19.88350, 5.83050,
8772, -16.00000, -134.00000, 2345.00000, 227.88849, 154.66919, -33.41675, -95.38100, -19.88350, 5.83050,
8778, -115.00000, -59.00000, 2617.00000, 182.66144, 125.92164, -15.22827, -95.38100, -19.88350, 5.83050,
8788, 44.00000, -207.00000, 2523.00000, 93.12286, 57.44019, -10.77271, -95.38100, -19.88350, 5.83050,
8796, 114.00000, -479.00000, 2313.00000, 52.96173, 23.38257, -15.89966, -95.38100, -19.88350, 5.83050,
8803, 133.00000, -561.00000, 2200.00000, 39.41193, 6.96411, -18.89038, -95.38100, -19.88350, 5.83050,
8810, 89.00000, -510.00000, 2157.00000, 32.45392, 0.92163, -19.74487, -95.38100, -19.88350, 5.83050,
8817, -16.00000, -429.00000, 2083.00000, 24.45831, -3.65601, -17.36450, -95.38100, -19.88350, 5.83050,
8827, -52.00000, -447.00000, 2180.00000, 16.09650, -9.02710, -11.50513, -95.38100, -19.88350, 5.83050,
8833, -66.00000, -461.00000, 2213.00000, 13.41095, -7.44019, -8.27026, -95.38100, -19.88350, 5.83050,
8842, -46.00000, -462.00000, 2210.00000, 10.90851, -5.05981, -4.91333, -95.38100, -19.88350, 5.83050,
8848, -25.00000, -457.00000, 2190.00000, 7.67365, -1.15356, -3.38745, -95.38100, -19.88350, 5.83050,
8856, -111.00000, -519.00000, 2090.00000, 4.62189, -2.80151, 2.41089, -95.38100, -19.88350, 5.83050,
8865, -50.00000, -534.00000, 2111.00000, 3.82843, -9.21021, 6.62231, -95.38100, -19.88350, 5.83050,
8905, 71.00000, -449.00000, 2103.00000, -27.05536, -0.60425, 9.00269, -85.21500, -4.63450, 21.37850,
8911, 67.00000, -543.00000, 2011.00000, -31.93817, 2.75269, 10.28442, -85.21500, -4.63450, 21.37850,
8918, 51.00000, -626.00000, 1949.00000, -30.90057, 6.78101, 11.62720, -85.21500, -4.63450, 21.37850,
8926, 19.00000, -684.00000, 1897.00000, -23.82050, 10.62622, 12.60376, -85.21500, -4.63450, 21.37850,
8935, 30.00000, -694.00000, 1888.00000, -11.24725, 14.65454, 15.22827, -85.21500, -4.63450, 21.37850,
8943, 190.00000, -446.00000, 1920.00000, -6.60858, 79.35181, 55.99976, -82.67350, -6.87700, 19.28550,
8974, 163.00000, -469.00000, 1948.00000, -12.40692, 94.97681, 63.14087, -82.67350, -6.87700, 19.28550,
8981, 78.00000, -532.00000, 2010.00000, -15.76385, 108.03833, 67.65747, -82.67350, -6.87700, 19.28550,
8988, -21.00000, -595.00000, 2088.00000, -15.15350, 118.53638, 69.06128, -82.67350, -6.87700, 19.28550,
8997, -162.00000, -649.00000, 2148.00000, -9.35516, 124.33472, 65.70435, -81.92599, -8.37200, 21.37850,
9006, -288.00000, -670.00000, 2173.00000, -1.72577, 121.22192, 58.62427, -81.92599, -8.37200, 21.37850,
9012, -371.00000, -702.00000, 2168.00000, 5.53741, 111.02905, 52.88696, -81.92599, -8.37200, 21.37850,
9020, -457.00000, -721.00000, 2141.00000, 18.41583, 90.39917, 44.28101, -81.92599, -8.37200, 21.37850,
9029, -485.00000, -698.00000, 2116.00000, 31.90460, 71.47827, 35.85815, -81.92599, -8.37200, 21.37850,
9036, -485.00000, -659.00000, 2093.00000, 40.63263, 61.22437, 31.40259, -81.92599, -8.37200, 21.37850,
9044, -468.00000, -607.00000, 2071.00000, 48.38409, 55.73120, 29.75464, -78.78650, -7.77400, 23.32200,
9051, -450.00000, -552.00000, 2034.00000, 56.37970, 54.69360, 31.03638, -78.78650, -7.77400, 23.32200,
9058, -402.00000, -493.00000, 1982.00000, 62.42218, 58.11157, 34.69849, -78.78650, -7.77400, 23.32200,
9067, -334.00000, -433.00000, 1914.00000, 67.24396, 68.42651, 40.80200, -78.78650, -7.77400, 23.32200,
9076, -322.00000, -406.00000, 1864.00000, 69.74640, 80.69458, 45.68481, -78.78650, -7.77400, 23.32200,
9082, -344.00000, -384.00000, 1831.00000, 70.47882, 87.77466, 47.69897, -78.78650, -7.77400, 23.32200,
9090, -376.00000, -345.00000, 1818.00000, 69.68536, 95.09888, 48.06519, -78.78650, -7.77400, 23.32200,
9096, -392.00000, -319.00000, 1836.00000, 68.28156, 98.76099, 47.27173, -76.84300, -3.88700, 25.26550,
9106, -444.00000, -291.00000, 1882.00000, 64.07013, 105.47485, 44.89136, -76.84300, -3.88700, 25.26550,
9113, -512.00000, -287.00000, 1905.00000, 60.28595, 108.89282, 44.09790, -76.84300, -3.88700, 25.26550,
9120, -576.00000, -278.00000, 1906.00000, 56.31866, 109.07593, 44.95239, -76.84300, -3.88700, 25.26550,
9128, -633.00000, -258.00000, 1914.00000, 50.33722, 107.67212, 46.66138, -76.84300, -3.88700, 25.26550,
9135, -728.00000, -230.00000, 1954.00000, 41.79230, 105.41382, 49.34692, -76.84300, -3.88700, 25.26550,
9145, -826.00000, -221.00000, 1993.00000, 27.87628, 100.10376, 53.00903, -72.20850, -3.88700, 25.71400,
9151, -864.00000, -357.00000, 1868.00000, 24.39728, 95.03784, 54.65698, -72.20850, -3.88700, 25.71400,
9159, -863.00000, -313.00000, 1804.00000, 24.58038, 89.72778, 57.28149, -72.20850, -3.88700, 25.71400,
9165, -875.00000, -264.00000, 1806.00000, 24.27521, 88.56812, 57.70874, -72.20850, -3.88700, 25.71400,
9174, -907.00000, -243.00000, 1814.00000, 23.17657, 90.39917, 55.20630, -72.20850, -3.88700, 25.71400,
9183, -962.00000, -219.00000, 1806.00000, 18.23273, 89.97192, 52.88696, -72.20850, -3.88700, 25.71400,
9190, -1024.00000, -205.00000, 1853.00000, 11.70197, 85.21118, 54.65698, -72.20850, -3.88700, 25.71400,
9197, -1257.00000, -110.00000, 1898.00000, -11.24725, 65.37476, 52.76489, -67.57400, -6.27900, 26.61100,
9222, -1165.00000, -166.00000, 1905.00000, -16.00800, 52.98462, 54.71802, -67.57400, -6.27900, 26.61100,
9230, -1041.00000, -232.00000, 1955.00000, -15.45868, 40.04517, 54.04663, -67.57400, -6.27900, 26.61100,
9239, -914.00000, -245.00000, 2000.00000, -7.82928, 30.70679, 51.36108, -67.57400, -6.27900, 26.61100,
9247, -841.00000, -216.00000, 2022.00000, 0.28839, 28.08228, 49.53003, -68.17200, -6.42850, 26.01300,
9253, -823.00000, -188.00000, 2017.00000, 4.07257, 30.03540, 49.71313, -68.17200, -6.42850, 26.01300,
9261, -820.00000, -178.00000, 1981.00000, 6.75812, 35.04028, 51.11694, -68.17200, -6.42850, 26.01300,
9267, -798.00000, -220.00000, 1945.00000, 8.46710, 39.61792, 56.12183, -68.17200, -6.42850, 26.01300,
9278, -819.00000, -337.00000, 1790.00000, 16.09650, 50.48218, 63.44604, -68.17200, -6.42850, 26.01300,
9285, -909.00000, -414.00000, 1713.00000, 32.69806, 59.45435, 62.89673, -68.17200, -6.42850, 26.01300,
9292, -993.00000, -350.00000, 1690.00000, 51.80206, 70.37964, 60.39429, -65.03250, -6.72750, 28.40500,
9299, -1079.00000, -273.00000, 1696.00000, 63.45978, 76.11694, 59.05151, -65.03250, -6.72750, 28.40500,
9306, -1153.00000, -195.00000, 1780.00000, 68.83087, 74.89624, 59.60083, -65.03250, -6.72750, 28.40500,
9317, -1169.00000, -68.00000, 1964.00000, 65.10773, 49.44458, 65.15503, -65.03250, -6.72750, 28.40500,
9322, -1152.00000, -6.00000, 1990.00000, 61.07941, 32.72095, 66.98608, -65.03250, -6.72750, 28.40500,
9331, -1100.00000, 3.00000, 2000.00000, 58.14972, 9.16138, 63.93433, -65.03250, -6.72750, 28.40500,
9371, -1036.00000, 2.00000, 1923.00000, 93.00079, -33.07495, 60.21118, -65.03250, -6.72750, 28.40500,
9377, -1057.00000, 104.00000, 1906.00000, 99.28741, -29.16870, 59.29565, -65.03250, -6.72750, 28.40500,
9386, -1026.00000, 218.00000, 1858.00000, 103.49884, -23.61450, 53.25317, -65.03250, -6.72750, 28.40500,
9393, -942.00000, 464.00000, 1599.00000, 97.33429, -15.37476, 47.27173, -65.03250, -6.72750, 28.40500,
9400, -905.00000, 596.00000, 1360.00000, 79.38995, -5.18188, 46.66138, -65.03250, -6.72750, 28.40500,
9407, -846.00000, 669.00000, 1457.00000, 49.97101, 9.03931, 38.05542, -65.03250, -6.72750, 28.40500,
9414, -781.00000, 648.00000, 1611.00000, 26.89972, 26.06812, 31.52466, -65.03250, -6.72750, 28.40500,
9422, -727.00000, 551.00000, 1694.00000, 1.75323, 45.05005, 30.30396, -65.03250, -6.72750, 28.40500,
9431, -778.00000, 501.00000, 1834.00000, -21.37909, 59.21021, 31.34155, -65.03250, -6.72750, 28.40500,
9437, -815.00000, 475.00000, 1922.00000, -33.76923, 72.21069, 32.68433, -65.03250, -6.72750, 28.40500,
9443, -787.00000, 501.00000, 1897.00000, -48.96698, 84.29565, 32.50122, -65.03250, -6.72750, 28.40500,
9448, -1172.00000, 177.00000, 1726.00000, -67.94891, 119.51294, 58.44116, -62.04250, -4.93350, 29.60100,
9511, -1307.00000, 175.00000, 1713.00000, -88.33466, 167.97485, 84.07593, -62.04250, -4.93350, 29.60100,
9524, -1500.00000, 116.00000, 1533.00000, -90.89813, 189.09302, 93.78052, -62.04250, -4.93350, 29.60100,
9558, -1379.00000, 250.00000, 1195.00000, -22.59979, 56.15845, 47.33276, -52.02600, -9.26900, 25.86350,
9570, -1321.00000, 296.00000, 1285.00000, -13.62762, 27.41089, 30.42603, -52.02600, -9.26900, 25.86350,
9607, -1539.00000, 219.00000, 1495.00000, -4.41132, -14.03198, 23.46802, -51.57750, -9.41850, 25.71400,
9642, -1542.00000, 206.00000, 1547.00000, 13.16681, -30.38940, 37.75024, -52.62400, -9.41850, 24.66750,
9653, -1389.00000, 313.00000, 1510.00000, 11.76300, -12.68921, 31.09741, -52.62400, -9.41850, 24.66750,
9689, -1441.00000, 246.00000, 1516.00000, 6.51398, 20.94116, 20.41626, -52.77350, -9.26900, 25.56450,
9699, -1402.00000, 415.00000, 1476.00000, -25.04120, 17.70630, -2.34985, -51.87650, -9.86700, 26.01300,
9766, -1423.00000, 170.00000, 1427.00000, -31.81610, 5.31616, 2.83813, -51.87650, -9.86700, 26.01300,
9778, -1497.00000, 20.00000, 1326.00000, -48.84491, 7.26929, 6.92749, -51.87650, -9.86700, 26.01300,
9813, -1385.00000, 508.00000, 1595.00000, -40.66620, 7.33032, -2.41089, -54.41800, -9.41850, 29.15250,
9825, -1391.00000, 367.00000, 1515.00000, -42.92450, 5.01099, -5.46265, -54.41800, -9.41850, 29.15250,
9859, -1374.00000, 131.00000, 1317.00000, -44.57245, 48.28491, -6.74438, -55.46450, -11.66100, 30.34850,
9941, -1612.00000, 125.00000, 1476.00000, 9.07745, -9.27124, 18.82935, -54.41800, -12.10950, 27.50800,
9971, -1463.00000, 178.00000, 1406.00000, 12.00714, -44.36646, 16.63208, -54.41800, -12.10950, 27.50800,
10043, -1380.00000, 248.00000, 1340.00000, 15.85236, -42.16919, 16.57104, -54.41800, -12.10950, 27.50800,
10056, -1435.00000, 229.00000, 1387.00000, 25.92316, -43.14575, 22.97974, -54.41800, -12.10950, 27.50800,
10086, -1326.00000, -71.00000, 1362.00000, 33.49152, -34.78394, 15.71655, -53.37150, -10.61450, 25.71400,
10107, -1461.00000, 257.00000, 1382.00000, 37.51984, -3.28979, 11.19995, -53.37150, -10.61450, 25.71400,
10114, -1417.00000, 321.00000, 1439.00000, 30.92804, 2.69165, 3.99780, -53.37150, -10.61450, 25.71400,
10122, -1403.00000, 354.00000, 1537.00000, 23.48175, 12.33521, -2.28882, -53.37150, -10.61450, 25.71400,
10153, -1616.00000, 355.00000, 1710.00000, 2.72980, -0.11597, -2.89917, -55.91300, -6.12950, 29.60100,
10160, -1640.00000, 250.00000, 1678.00000, 7.85675, -17.87720, 1.55640, -55.91300, -6.12950, 29.60100,
10169, -1695.00000, 310.00000, 1662.00000, 12.06818, -41.43677, 3.44849, -55.91300, -6.12950, 29.60100,
10199, -1748.00000, 182.00000, 1399.00000, -60.01434, -92.88940, -41.59546, -55.46450, -10.61450, 29.15250,
10208, -1638.00000, -102.00000, 1286.00000, -58.00018, -81.96411, -29.38843, -55.46450, -10.61450, 29.15250,
10217, -1490.00000, -194.00000, 1186.00000, -20.40253, -72.80884, -19.01245, -55.46450, -10.61450, 29.15250,
10223, -950.00000, 306.00000, 2109.00000, -36.39374, 20.57495, 22.36938, -62.34150, -9.41850, 26.76050,
10285, -1054.00000, 331.00000, 1921.00000, 4.31671, 18.37769, 30.05981, -61.14550, -9.71750, 27.65750,
10292, -1109.00000, 340.00000, 1834.00000, 12.80060, 19.84253, 33.41675, -61.14550, -9.71750, 27.65750,
10329, -1425.00000, 441.00000, 1642.00000, 22.93243, 27.83813, 52.03247, -59.35150, -9.71750, 27.65750,
10336, -1432.00000, 448.00000, 1667.00000, 21.16241, 15.63110, 50.44556, -59.35150, -9.71750, 27.65750,
10368, -1195.00000, 419.00000, 1426.00000, 28.66974, 14.95972, 33.05054, -59.35150, -9.71750, 27.65750,
10379, -1252.00000, 457.00000, 1422.00000, 24.58038, 22.83325, 31.95190, -59.65050, -7.77400, 26.91000,
10385, -1313.00000, 465.00000, 1466.00000, 19.27032, 27.10571, 32.44019, -59.65050, -7.77400, 26.91000,
10394, -1365.00000, 503.00000, 1615.00000, 16.27960, 32.29370, 32.31812, -59.65050, -7.77400, 26.91000,
10400, -1371.00000, 493.00000, 1606.00000, 12.25128, 33.69751, 32.74536, -59.65050, -7.77400, 26.91000,
10408, -1314.00000, 485.00000, 1553.00000, 11.03058, 30.82886, 33.05054, -59.65050, -7.77400, 26.91000,
10414, -1284.00000, 480.00000, 1621.00000, 11.03058, 28.75366, 32.80640, -59.65050, -7.77400, 26.91000,
10422, -1295.00000, 534.00000, 1653.00000, 15.30304, 22.34497, 30.60913, -59.65050, -7.77400, 26.91000,
10429, -1322.00000, 562.00000, 1630.00000, 18.65997, 14.65454, 29.57153, -57.85650, -10.01650, 27.95650,
10437, -1291.00000, 566.00000, 1616.00000, 21.65070, -0.36011, 27.49634, -57.85650, -10.01650, 27.95650,
10447, -1286.00000, 511.00000, 1635.00000, 19.75861, -6.15845, 21.75903, -57.85650, -10.01650, 27.95650,
10454, -1344.00000, 502.00000, 1597.00000, 16.95099, -8.23364, 18.40210, -57.85650, -10.01650, 27.95650,
10462, -1385.00000, 486.00000, 1596.00000, 15.36407, -11.10229, 17.54761, -57.85650, -10.01650, 27.95650,
10469, -1396.00000, 473.00000, 1594.00000, 14.69269, -13.48267, 18.15796, -57.85650, -10.01650, 27.95650,
10477, -1250.00000, 501.00000, 1590.00000, -1.60370, -1.58081, 18.70728, -58.45450, -7.17600, 28.85350,
10528, -1178.00000, 594.00000, 1634.00000, -0.07782, -1.03149, 20.59937, -59.05250, -7.62450, 28.85350,
10537, -1090.00000, 630.00000, 1652.00000, -4.10614, 1.59302, 21.75903, -59.05250, -7.62450, 28.85350,
10544, -1072.00000, 605.00000, 1622.00000, -6.66962, 4.82788, 22.73560, -59.05250, -7.62450, 28.85350,
10552, -1122.00000, 580.00000, 1573.00000, -6.97479, 9.16138, 24.62769, -59.05250, -7.62450, 28.85350,
10559, -1157.00000, 566.00000, 1554.00000, -5.57098, 10.07690, 26.15356, -59.05250, -7.62450, 28.85350,
10572, -1158.00000, 511.00000, 1524.00000, -4.96063, 10.80933, 24.56665, -59.05250, -7.62450, 28.85350,
10580, -1176.00000, 502.00000, 1493.00000, -2.09198, 7.75757, 22.00317, -59.05250, -7.62450, 28.85350,
10587, -1205.00000, 508.00000, 1486.00000, 0.28839, 4.76685, 19.98901, -59.05250, -7.62450, 28.85350,
10595, -1230.00000, 485.00000, 1484.00000, 1.38702, 2.20337, 18.58521, -59.05250, -7.62450, 28.85350,
10602, -1230.00000, 469.00000, 1484.00000, 2.60773, 0.73853, 17.60864, -59.05250, -7.62450, 28.85350,
10613, -1252.00000, 518.00000, 1500.00000, 3.64532, 1.89819, 16.99829, -59.05250, -7.62450, 28.85350,
10619, -1261.00000, 557.00000, 1513.00000, 4.07257, 2.08130, 16.93726, -59.05250, -7.62450, 28.85350,
10628, -1255.00000, 592.00000, 1528.00000, 2.79083, 2.32544, 16.08276, -59.05250, -7.62450, 28.85350,
10634, -1241.00000, 615.00000, 1548.00000, 2.48566, 3.11890, 15.35034, -59.05250, -7.62450, 28.85350,
10643, -1234.00000, 658.00000, 1551.00000, 2.18048, 5.19409, 15.16724, -59.05250, -7.62450, 28.85350,
10652, -1237.00000, 645.00000, 1574.00000, 4.86603, 8.00171, 15.77759, -59.05250, -7.62450, 28.85350,
10660, -1259.00000, 672.00000, 1596.00000, 7.36847, 9.58862, 15.47241, -59.05250, -7.62450, 28.85350,
10667, -1265.00000, 708.00000, 1572.00000, 9.74884, 10.93140, 14.25171, -59.05250, -7.62450, 28.85350,
10675, -1242.00000, 745.00000, 1544.00000, 11.76300, 14.16626, 13.88550, -59.05250, -7.62450, 28.85350,
10682, -1231.00000, 762.00000, 1474.00000, 14.69269, 19.47632, 14.80103, -59.05250, -7.62450, 28.85350,
10692, -1230.00000, 823.00000, 1466.00000, 24.45831, 28.81470, 18.34106, -59.05250, -7.62450, 28.85350,
10700, -1240.00000, 829.00000, 1429.00000, 25.80109, 36.26099, 19.50073, -59.05250, -7.62450, 28.85350,
10707, -1241.00000, 761.00000, 1432.00000, 29.15802, 40.89966, 19.56177, -59.05250, -7.62450, 28.85350,
10715, -1289.00000, 757.00000, 1539.00000, 24.03107, 46.33179, 17.54761, -59.05250, -7.62450, 28.85350,
10722, -1315.00000, 779.00000, 1431.00000, 18.84308, 48.10181, 16.57104, -59.05250, -7.62450, 28.85350,
10732, -1236.00000, 942.00000, 1522.00000, 13.47198, 50.11597, 19.86694, -55.31500, -8.22250, 26.61100,
10759, -1243.00000, 952.00000, 1582.00000, 11.82404, 37.17651, 18.03589, -55.31500, -8.22250, 26.61100,
10767, -1297.00000, 955.00000, 1624.00000, 11.15265, 33.51440, 14.98413, -55.31500, -8.22250, 26.61100,
10774, -1317.00000, 902.00000, 1537.00000, 10.96954, 27.89917, 12.66479, -54.56750, -7.02650, 27.65750,
10782, -1293.00000, 885.00000, 1471.00000, 17.56134, 18.74390, 10.83374, -54.56750, -7.02650, 27.65750,
10792, -1291.00000, 892.00000, 1576.00000, 21.10138, 11.11450, 7.90405, -54.56750, -7.02650, 27.65750,
10798, -1315.00000, 880.00000, 1548.00000, 18.84308, 13.55591, 7.59888, -54.56750, -7.02650, 27.65750,
10807, -1285.00000, 827.00000, 1508.00000, 16.64581, 16.18042, 8.88062, -54.56750, -7.02650, 27.65750,
10813, -1238.00000, 796.00000, 1288.00000, 23.60382, 19.17114, 10.22339, -54.56750, -7.02650, 27.65750,
10822, -1224.00000, 805.00000, 1443.00000, 20.73517, 23.01636, 10.83374, -52.92300, -7.92350, 27.50800,
10831, -1207.00000, 755.00000, 1353.00000, 17.01202, 27.59399, 9.91821, -52.92300, -7.92350, 27.50800,
10838, -1177.00000, 749.00000, 1303.00000, 16.34064, 30.34058, 9.73511, -52.92300, -7.92350, 27.50800,
10846, -1175.00000, 790.00000, 1271.00000, 15.79132, 33.20923, 9.91821, -52.92300, -7.92350, 27.50800,
10853, -1178.00000, 745.00000, 869.00000, 16.76788, 32.35474, 11.19995, -52.92300, -7.92350, 27.50800,
10864, -1166.00000, 816.00000, 1307.00000, 21.46759, 34.24683, 12.23755, -52.92300, -7.92350, 27.50800,
10870, -1235.00000, 816.00000, 1253.00000, 16.76788, 35.46753, 12.05444, -52.92300, -7.92350, 27.50800,
10878, -1223.00000, 832.00000, 1205.00000, 10.96954, 32.47681, 12.23755, -52.62400, -7.17600, 27.50800,
10885, -1211.00000, 840.00000, 1195.00000, 8.03986, 29.85229, 12.29858, -52.62400, -7.17600, 27.50800,
10893, -1191.00000, 800.00000, 1187.00000, 5.17120, 26.73950, 11.93237, -52.62400, -7.17600, 27.50800,
10903, -1138.00000, 741.00000, 954.00000, 16.76788, 25.94604, 11.87134, -52.62400, -7.17600, 27.50800,
10910, -1212.00000, 786.00000, 1266.00000, 10.66437, 28.99780, 8.02612, -52.62400, -7.17600, 27.50800,
10918, -1306.00000, 748.00000, 1224.00000, 8.16193, 28.87573, 6.13403, -52.62400, -7.17600, 27.50800,
10925, -1366.00000, 747.00000, 1214.00000, 6.39191, 26.98364, 4.36401, -53.82000, -4.03650, 26.61100,
10933, -1410.00000, 754.00000, 1240.00000, 5.41534, 23.87085, 3.50952, -53.82000, -4.03650, 26.61100,
10942, -1399.00000, 795.00000, 1278.00000, 4.31671, 20.69702, 2.22778, -53.82000, -4.03650, 26.61100,
10950, -1380.00000, 770.00000, 1300.00000, 4.49982, 20.63599, 2.71606, -53.82000, -4.03650, 26.61100,
10957, -1384.00000, 765.00000, 1313.00000, 5.23224, 21.91772, 3.63159, -53.82000, -4.03650, 26.61100,
10965, -1424.00000, 784.00000, 1360.00000, 4.74396, 23.68774, 6.07300, -53.82000, -4.03650, 26.61100,
10972, -1426.00000, 752.00000, 1380.00000, 3.88947, 24.60327, 6.92749, -49.78350, -6.12950, 27.05950,
10982, -1494.00000, 701.00000, 1449.00000, 14.14337, 16.05835, 4.30298, -49.78350, -6.12950, 27.05950,
11035, -1572.00000, 564.00000, 1329.00000, -3.25165, 12.09106, 0.76294, -46.64400, -6.27900, 24.81700,
11043, -1600.00000, 503.00000, 1309.00000, -5.63202, 14.59351, 2.04468, -46.64400, -6.27900, 24.81700,
11050, -1619.00000, 467.00000, 1271.00000, -8.62274, 17.52319, 4.18091, -46.64400, -6.27900, 24.81700,
11058, -1604.00000, 442.00000, 1094.00000, -11.79657, 16.30249, 5.82886, -46.64400, -6.27900, 24.81700,
11068, -1531.00000, 437.00000, 1302.00000, -4.10614, 3.30200, 6.07300, -46.64400, -6.27900, 24.81700,
11074, -1596.00000, 427.00000, 1209.00000, -10.94208, 5.74341, 6.31714, -50.08250, -4.93350, 28.10600,
11083, -1549.00000, 386.00000, 1114.00000, -17.41180, 2.56958, 5.95093, -50.08250, -4.93350, 28.10600,
11089, -1543.00000, 400.00000, 1080.00000, -21.86737, -0.11597, 5.03540, -50.08250, -4.93350, 28.10600,
11098, -1562.00000, 362.00000, 1085.00000, -27.97089, -3.10669, 4.60815, -50.08250, -4.93350, 28.10600,
11107, -1577.00000, 345.00000, 1108.00000, -33.89130, -3.22876, 5.82886, -50.08250, -4.93350, 28.10600,
11114, -1571.00000, 334.00000, 1133.00000, -39.62860, 0.12817, 8.02612, -50.08250, -4.93350, 28.10600,
11122, -1590.00000, 348.00000, 1176.00000, -44.45038, 4.46167, 10.58960, -50.83000, -6.42850, 25.71400,
11129, -1565.00000, 375.00000, 1239.00000, -48.47870, 9.64966, 12.78687, -50.83000, -6.42850, 25.71400,
11136, -1546.00000, 430.00000, 1299.00000, -49.88251, 14.04419, 14.00757, -50.83000, -6.42850, 25.71400,
11145, -1545.00000, 546.00000, 1365.00000, -49.15009, 18.74390, 14.61792, -50.83000, -6.42850, 25.71400,
11154, -1566.00000, 620.00000, 1447.00000, -46.83075, 21.06323, 12.90894, -50.83000, -6.42850, 25.71400,
11160, -1609.00000, 668.00000, 1505.00000, -44.26727, 20.75806, 11.01685, -50.83000, -6.42850, 25.71400,
11169, -1649.00000, 718.00000, 1581.00000, -40.54413, 18.98804, 8.45337, -50.08250, -7.92350, 26.76050,
11175, -1657.00000, 711.00000, 1619.00000, -37.98065, 19.29321, 6.98853, -50.08250, -7.92350, 26.76050,
11185, -1432.00000, 135.00000, 1667.00000, -77.16522, 2.75269, -0.39673, -50.08250, -7.92350, 26.76050,
11193, -1950.00000, 1050.00000, 1790.00000, -58.30536, 23.01636, -4.60815, -50.08250, -7.92350, 26.76050,
11200, -1860.00000, 628.00000, 1887.00000, -43.77899, 31.98852, 8.27026, -50.08250, -7.92350, 26.76050,
11208, -1821.00000, 706.00000, 1822.00000, -31.14471, 35.65063, 10.22339, -50.08250, -7.92350, 26.76050,
11215, -1788.00000, 683.00000, 1719.00000, -21.07391, 36.62720, 13.82446, -50.08250, -7.92350, 26.76050,
11225, -1749.00000, 683.00000, 1608.00000, -11.61346, 35.89478, 15.59448, -50.08250, -7.92350, 26.76050,
11231, -1713.00000, 731.00000, 1601.00000, -8.56171, 34.36890, 17.42554, -50.08250, -7.92350, 26.76050,
11240, -1631.00000, 704.00000, 1536.00000, 4.49982, 20.02563, 21.27075, -50.08250, -7.92350, 26.76050,
11266, -1623.00000, 669.00000, 1490.00000, 6.39191, 18.80493, 22.24731, -50.08250, -7.92350, 26.76050,
11274, -1596.00000, 683.00000, 1454.00000, 7.42950, 19.90356, 23.71216, -50.08250, -7.92350, 26.76050,
11283, -1569.00000, 650.00000, 1447.00000, 8.40607, 22.83325, 24.87183, -50.08250, -7.92350, 26.76050,
11291, -1563.00000, 621.00000, 1424.00000, 10.11505, 24.23706, 25.42114, -50.08250, -7.92350, 26.76050,
11298, -1543.00000, 629.00000, 1379.00000, 10.72540, 25.64087, 25.78735, -50.08250, -7.92350, 26.76050,
11306, -1513.00000, 609.00000, 1330.00000, 10.05402, 27.59399, 25.90942, -50.08250, -7.92350, 26.76050,
11316, -1508.00000, 585.00000, 1242.00000, 8.65021, 29.54712, 25.60425, -46.04600, -9.11950, 23.92000,
11352, -1284.00000, 610.00000, 939.00000, -8.62274, 34.24683, 24.93286, -46.04600, -9.11950, 23.92000,
11358, -1291.00000, 602.00000, 923.00000, -12.52899, 30.40161, 22.73560, -46.04600, -9.11950, 23.92000,
11365, -1286.00000, 594.00000, 918.00000, -15.39764, 25.94604, 21.02661, -46.04600, -9.11950, 23.92000,
11373, -1266.00000, 591.00000, 928.00000, -18.99872, 19.72046, 18.46313, -45.59750, -8.52150, 25.11600,
11382, -1268.00000, 607.00000, 941.00000, -21.37909, 11.96899, 14.80103, -45.59750, -8.52150, 25.11600,
11390, -1247.00000, 619.00000, 964.00000, -22.05048, 6.41479, 12.11548, -45.59750, -8.52150, 25.11600,
11397, -1216.00000, 679.00000, 1017.00000, -23.33221, 2.08130, 9.97925, -45.59750, -8.52150, 25.11600,
11405, -1218.00000, 698.00000, 1087.00000, -24.91913, 0.43335, 8.63647, -45.59750, -8.52150, 25.11600,
11412, -1277.00000, 691.00000, 1163.00000, -25.71259, -0.48218, 8.20923, -45.59750, -8.52150, 25.11600,
11421, -1357.00000, 701.00000, 1239.00000, -26.13983, -2.19116, 7.90405, -46.04600, -9.41850, 22.87350,
11430, -1390.00000, 703.00000, 1304.00000, -25.22430, -2.25220, 7.96509, -46.04600, -9.41850, 22.87350,
11436, -1418.00000, 709.00000, 1338.00000, -23.88153, -1.15356, 7.23267, -46.04600, -9.41850, 22.87350,
11444, -1473.00000, 690.00000, 1363.00000, -21.19598, 0.37231, 5.40161, -46.04600, -9.41850, 22.87350,
11451, -1501.00000, 674.00000, 1363.00000, -19.05975, 1.10474, 3.93677, -46.04600, -9.41850, 22.87350,
11461, -1538.00000, 637.00000, 1356.00000, -16.00800, 2.32544, 2.59399, -46.04600, -9.41850, 22.87350,
11469, -1525.00000, 643.00000, 1351.00000, -14.60419, 3.79028, 3.26538, -43.95300, -7.62450, 23.92000,
11476, -1532.00000, 656.00000, 1351.00000, -14.05487, 5.68237, 4.11987, -43.95300, -7.62450, 23.92000,
11483, -1555.00000, 659.00000, 1340.00000, -12.77313, 6.04858, 5.34058, -43.95300, -7.62450, 23.92000,
11491, -1574.00000, 710.00000, 1300.00000, -9.72137, 5.68237, 9.12476, -43.95300, -7.62450, 23.92000,
11521, -1562.00000, 701.00000, 1299.00000, -9.41620, 7.63550, 11.19995, -43.35500, -10.46500, 20.18250,
11527, -1552.00000, 698.00000, 1281.00000, -9.84344, 10.19897, 12.78687, -43.35500, -10.46500, 20.18250,
11536, -1546.00000, 684.00000, 1267.00000, -11.36932, 14.59351, 15.65552, -43.35500, -10.46500, 20.18250,
11542, -1549.00000, 696.00000, 1269.00000, -12.65106, 16.85181, 17.54761, -43.35500, -10.46500, 20.18250,
11551, -1539.00000, 739.00000, 1298.00000, -14.42108, 16.79077, 19.43970, -43.35500, -10.46500, 20.18250,
11560, -1541.00000, 805.00000, 1348.00000, -15.76385, 13.06763, 19.56177, -43.35500, -10.46500, 20.18250,
11567, -1565.00000, 833.00000, 1414.00000, -16.00800, 8.06274, 18.89038, -43.05600, -9.26900, 22.72400,
11575, -1612.00000, 822.00000, 1428.00000, -15.58075, 3.97339, 18.21899, -43.05600, -9.26900, 22.72400,
11582, -1620.00000, 786.00000, 1382.00000, -16.13007, 2.38647, 19.74487, -43.05600, -9.26900, 22.72400,
11590, -1599.00000, 715.00000, 1313.00000, -17.96112, 4.03442, 21.20972, -43.05600, -9.26900, 22.72400,
11599, -1626.00000, 632.00000, 1298.00000, -20.28046, 4.94995, 23.65112, -43.05600, -9.26900, 22.72400,
11607, -1638.00000, 588.00000, 1315.00000, -20.70770, 1.59302, 26.03149, -43.05600, -9.26900, 22.72400,
11613, -1617.00000, 555.00000, 1312.00000, -20.52460, -2.86255, 27.31323, -40.66400, -12.85700, 22.87350,
11622, -1515.00000, 487.00000, 1293.00000, -18.32733, -7.07397, 29.75464, -40.66400, -12.85700, 22.87350,
11628, -1531.00000, 455.00000, 1314.00000, -15.27557, -6.21948, 33.17261, -40.66400, -12.85700, 22.87350,
11638, -1669.00000, 528.00000, 1279.00000, -13.56659, -5.05981, 46.96655, -40.66400, -12.85700, 22.87350,
11646, -1567.00000, 439.00000, 1357.00000, -13.01727, -1.03149, 53.19214, -40.66400, -12.85700, 22.87350,
11653, -1561.00000, 612.00000, 1472.00000, -8.86688, 4.09546, 58.99048, -40.66400, -12.85700, 22.87350,
11661, -1504.00000, 706.00000, 1514.00000, -7.27997, 10.68726, 64.42261, -40.66400, -12.85700, 22.87350,
11670, -1455.00000, 769.00000, 1460.00000, -5.20477, 26.49536, 72.72339, -42.15900, -10.91350, 22.12600,
11678, -1502.00000, 837.00000, 1331.00000, -3.61786, 41.63208, 77.23999, -42.15900, -10.91350, 22.12600,
11684, -1505.00000, 887.00000, 1234.00000, -2.33612, 49.32251, 77.66724, -42.15900, -10.91350, 22.12600,
11693, -1449.00000, 965.00000, 1133.00000, -3.25165, 55.91431, 75.83618, -42.15900, -10.91350, 22.12600,
11699, -1427.00000, 996.00000, 1096.00000, -4.41132, 56.70776, 72.05200, -42.15900, -10.91350, 22.12600,
11710, -1391.00000, 1023.00000, 1110.00000, -7.40204, 46.33179, 61.30981, -42.15900, -10.91350, 22.12600,
11717, -1349.00000, 1036.00000, 1109.00000, -8.43964, 36.68823, 54.10767, -41.71050, -8.67100, 21.37850,
11724, -1316.00000, 1038.00000, 1111.00000, -8.62274, 24.60327, 46.05103, -41.71050, -8.67100, 21.37850,
11732, -1237.00000, 991.00000, 1153.00000, -8.13446, 14.59351, 35.79712, -41.71050, -8.67100, 21.37850,
11739, -1211.00000, 1001.00000, 1183.00000, -7.95135, 5.86548, 23.10181, -41.71050, -8.67100, 21.37850,
11750, -1299.00000, 772.00000, 1112.00000, -27.42157, -3.83911, -7.78198, -41.86000, -6.72750, 22.27550,
11776, -1333.00000, 738.00000, 1186.00000, -10.45380, -3.47290, -3.32642, -41.86000, -6.72750, 22.27550,
11784, -1285.00000, 990.00000, 1265.00000, 0.77667, -1.76392, 1.25122, -41.86000, -6.72750, 22.27550,
11790, -1295.00000, 1047.00000, 1225.00000, -0.32196, 1.40991, 4.30298, -41.86000, -6.72750, 22.27550,
11799, -1359.00000, 994.00000, 1162.00000, -0.26093, 4.70581, 9.24683, -41.86000, -6.72750, 22.27550,
11808, -1432.00000, 1066.00000, 1071.00000, -2.76337, 4.40063, 11.01685, -41.86000, -6.72750, 22.27550,
11816, -1458.00000, 1152.00000, 1044.00000, -7.15790, -0.42114, 14.00757, -41.86000, -6.72750, 22.27550,
11823, -1385.00000, 1169.00000, 1045.00000, -11.49139, -5.36499, 15.28931, -41.86000, -6.72750, 22.27550,
11830, -1292.00000, 1131.00000, 1031.00000, -15.45868, -6.95190, 15.41138, -41.86000, -6.72750, 22.27550,
11838, -1263.00000, 1113.00000, 1017.00000, -17.59491, -4.14429, 15.53345, -41.86000, -6.72750, 22.27550,
11855, -1249.00000, 1218.00000, 1117.00000, -20.89081, 1.40991, 16.75415, -41.86000, -6.72750, 22.27550,
11861, -1200.00000, 1259.00000, 1170.00000, -21.50116, 2.02026, 15.47241, -41.86000, -6.72750, 22.27550,
11871, -1123.00000, 1250.00000, 1262.00000, -20.40253, 10.32104, 10.83374, -41.86000, -6.72750, 22.27550,
11878, -1202.00000, 1234.00000, 1292.00000, -18.69354, 18.43872, 5.76782, -41.86000, -6.72750, 22.27550,
11888, -1416.00000, 1188.00000, 1272.00000, -16.31317, 23.56567, 2.77710, -41.86000, -6.72750, 22.27550,
11898, -1441.00000, 1121.00000, 1183.00000, -14.90936, 23.50464, 2.77710, -41.86000, -6.72750, 22.27550,
11905, -1385.00000, 1128.00000, 1122.00000, -14.66522, 23.32153, 2.77710, -41.86000, -6.72750, 22.27550,
11912, -1317.00000, 1113.00000, 1116.00000, -14.97040, 23.19946, 2.59399, -41.86000, -6.72750, 22.27550,
11919, -1237.00000, 1087.00000, 1132.00000, -14.97040, 22.95532, 1.67847, -41.86000, -6.72750, 22.27550,
11929, -1049.00000, 1169.00000, 1088.00000, -16.31317, 23.93188, -2.65503, -41.86000, -6.72750, 22.27550,
11935, -1165.00000, 1103.00000, 1136.00000, -15.64178, 23.38257, -5.03540, -41.86000, -6.72750, 22.27550,
11944, -1337.00000, 1061.00000, 1069.00000, -14.48212, 14.16626, -4.24194, -41.86000, -6.72750, 22.27550,
11950, -1264.00000, 1025.00000, 979.00000, -14.97040, 13.86108, -2.34985, -41.86000, -6.72750, 22.27550,
11958, -1316.00000, 1015.00000, 1033.00000, -16.55731, 19.23218, -1.55640, -39.16900, -9.41850, 20.03300,
11967, -1415.00000, 973.00000, 1100.00000, -16.49628, 21.36841, 0.94604, -39.16900, -9.41850, 20.03300,
11974, -1452.00000, 985.00000, 1125.00000, -14.17694, 19.41528, 1.98364, -39.16900, -9.41850, 20.03300,
11981, -1468.00000, 1009.00000, 1146.00000, -14.90936, 18.92700, 2.22778, -39.16900, -9.41850, 20.03300,
11989, -1487.00000, 1018.00000, 1171.00000, -14.90936, 16.60767, 2.22778, -39.16900, -9.41850, 20.03300,
11996, -1509.00000, 1022.00000, 1192.00000, -14.23798, 12.33521, 1.55640, -39.16900, -9.41850, 20.03300,
12005, -1501.00000, 1409.00000, 1387.00000, -35.41718, 9.22241, -15.41138, -39.61750, -9.11950, 18.98650,
12032, -1488.00000, 1066.00000, 1353.00000, -25.59052, 15.20386, -1.19019, -39.61750, -9.11950, 18.98650,
12038, -1504.00000, 1150.00000, 1298.00000, -20.15839, 15.32593, -0.39673, -39.61750, -9.11950, 18.98650,
12046, -1421.00000, 1116.00000, 1287.00000, -15.88593, 13.18970, 2.41089, -39.61750, -9.11950, 18.98650,
12052, -1428.00000, 1076.00000, 1275.00000, -14.36005, 12.70142, 3.87573, -39.61750, -9.11950, 18.98650,
12062, -1420.00000, 990.00000, 1281.00000, -12.22382, 15.20386, 7.65991, -39.31850, -12.25900, 18.38850,
12070, -1452.00000, 984.00000, 1293.00000, -11.30829, 18.98804, 10.10132, -39.31850, -12.25900, 18.38850,
12077, -1489.00000, 987.00000, 1289.00000, -10.02655, 21.85669, 12.42065, -39.31850, -12.25900, 18.38850,
12084, -1497.00000, 1001.00000, 1276.00000, -8.56171, 23.13843, 13.15308, -39.31850, -12.25900, 18.38850,
12091, -1480.00000, 1007.00000, 1251.00000, -7.09686, 24.11499, 13.09204, -39.31850, -12.25900, 18.38850,
12101, -1421.00000, 1006.00000, 1226.00000, -5.87616, 25.51880, 12.35962, -39.31850, -12.25900, 18.38850,
12107, -1389.00000, 982.00000, 1217.00000, -5.87616, 25.94604, 11.99341, -37.22550, -12.25900, 18.38850,
12116, -1376.00000, 936.00000, 1190.00000, -6.12030, 24.54224, 12.23755, -37.22550, -12.25900, 18.38850,
12122, -1327.00000, 934.00000, 1177.00000, -6.54755, 23.13843, 12.48169, -37.22550, -12.25900, 18.38850,
12130, -1285.00000, 913.00000, 1159.00000, -7.89032, 23.32153, 11.93237, -37.22550, -12.25900, 18.38850,
12139, -1328.00000, 897.00000, 1141.00000, -8.98895, 25.82397, 11.07788, -37.22550, -12.25900, 18.38850,
12146, -1391.00000, 891.00000, 1127.00000, -9.35516, 27.77710, 10.52856, -37.22550, -12.25900, 18.38850,
12153, -1440.00000, 876.00000, 1113.00000, -9.29413, 29.54712, 10.34546, -37.22550, -12.25900, 18.38850,
12160, -1476.00000, 876.00000, 1096.00000, -9.04999, 31.01196, 10.16235, -39.01950, -8.97000, 17.64100,
12170, -1468.00000, 868.00000, 1069.00000, -8.68378, 31.19507, 9.55200, -39.01950, -8.97000, 17.64100,
12176, -1434.00000, 868.00000, 1048.00000, -8.56171, 29.91333, 8.63647, -39.01950, -8.97000, 17.64100,
12181, -1394.00000, 897.00000, 1028.00000, -9.04999, 28.32642, 7.11060, -39.01950, -8.97000, 17.64100,
12187, -1370.00000, 902.00000, 1006.00000, -9.96552, 25.88501, 4.60815, -39.01950, -8.97000, 17.64100,
12216, -1332.00000, 857.00000, 954.00000, -18.26630, 13.92212, -4.05884, -34.68400, -12.25900, 15.54800,
12264, -1703.00000, 719.00000, 1173.00000, -16.61835, 33.88062, 2.16675, -32.74050, -12.85700, 13.90350,
12313, -1722.00000, 738.00000, 1154.00000, -16.61835, 29.85229, 3.08228, -32.74050, -12.85700, 13.90350,
12342, -1549.00000, 773.00000, 1185.00000, -13.62762, 14.65454, 1.37329, -32.74050, -12.85700, 13.90350,
12351, -1569.00000, 783.00000, 1206.00000, -12.95624, 16.36353, 0.39673, -32.74050, -12.85700, 13.90350,
12381, -1391.00000, 1391.00000, 1380.00000, -48.47870, 44.80591, -6.50024, -33.63750, -11.96000, 14.20250,
12403, -1548.00000, 937.00000, 1017.00000, -13.50555, 42.79175, 4.79126, -36.62750, -13.15600, 13.60450,
12441, -1417.00000, 928.00000, 788.00000, -14.54315, 31.07300, -13.64136, -36.62750, -13.15600, 13.60450,
12448, -1455.00000, 888.00000, 738.00000, -18.93768, 28.32642, -17.66968, -36.62750, -13.15600, 13.60450,
12476, -1703.00000, 666.00000, 1082.00000, -24.85809, 25.64087, 1.37329, -36.62750, -13.15600, 13.60450,
12486, -1646.00000, 750.00000, 1060.00000, -22.23358, 16.66870, 2.71606, -36.62750, -13.15600, 13.60450,
12519, -1614.00000, 751.00000, 956.00000, -27.17743, -11.04126, -2.34985, -36.62750, -13.15600, 13.60450,
12600, -1531.00000, 729.00000, 735.00000, -37.30927, -28.00903, -7.23267, -36.62750, -13.15600, 13.60450,
12620, -1497.00000, 699.00000, 688.00000, -37.67548, -21.84448, -10.52856, -30.64750, -18.98650, 11.66100,
12650, -1488.00000, 574.00000, 683.00000, -34.74579, -8.59985, -15.22827, -31.99300, -19.13600, 11.81050,
12659, -1562.00000, 536.00000, 729.00000, -35.35614, -5.36499, -15.89966, -31.99300, -19.13600, 11.81050,
12673, -1685.00000, 466.00000, 876.00000, -36.02753, -9.88159, -15.10620, -31.99300, -19.13600, 11.81050,
12680, -1715.00000, 448.00000, 981.00000, -36.63788, -13.84888, -14.19067, -31.99300, -19.13600, 11.81050,
12712, -1667.00000, 426.00000, 1468.00000, -41.64276, -7.80640, -8.63647, -30.34850, -21.67750, 11.96000,
12719, -1663.00000, 425.00000, 1534.00000, -41.76483, -5.30396, -8.33130, -30.34850, -21.67750, 11.96000,
12758, -1570.00000, 369.00000, 1457.00000, -15.82489, -13.23853, -16.57104, -32.74050, -21.37850, 11.51150,
12787, -1488.00000, 781.00000, 1293.00000, -16.25214, -3.77808, -33.23364, -34.83350, -20.33200, 14.35200,
12846, -1516.00000, 742.00000, 1354.00000, -18.02216, 8.36792, -31.95190, -34.83350, -20.33200, 14.35200,
12876, -1884.00000, 416.00000, 1343.00000, -30.65643, 36.56616, -17.24243, -36.17900, -22.72400, 14.80050,
12885, -1796.00000, 520.00000, 1359.00000, -32.36542, 41.14380, -8.33130, -36.17900, -22.72400, 14.80050,
12897, -1658.00000, 624.00000, 1392.00000, -30.96161, 42.66968, 2.89917, -36.47800, -23.17250, 13.75400,
12904, -1684.00000, 654.00000, 1375.00000, -25.83466, 38.39722, 6.01196, -36.47800, -23.17250, 13.75400,
12942, -1654.00000, 730.00000, 1295.00000, -13.32245, 15.50903, 10.52856, -36.47800, -23.17250, 13.75400,
12950, -1616.00000, 770.00000, 1327.00000, -12.65106, 19.11011, 11.50513, -34.08600, -24.36850, 11.51150,
12988, -1526.00000, 749.00000, 1392.00000, -3.37372, 26.31226, 7.78198, -34.08600, -24.36850, 11.51150,
12999, -1463.00000, 770.00000, 1372.00000, -1.23749, 18.25562, 5.40161, -36.32850, -25.11600, 11.06300,
13029, -1372.00000, 775.00000, 1449.00000, 0.65460, 0.43335, -11.07788, -36.32850, -25.11600, 11.06300,
13038, -1450.00000, 537.00000, 1544.00000, 3.82843, -7.86743, -20.78247, -36.32850, -25.11600, 11.06300,
13064, -1461.00000, 485.00000, 1561.00000, 6.02570, -12.50610, -21.75903, -36.32850, -25.11600, 11.06300,
13072, -1456.00000, 428.00000, 1582.00000, 8.65021, -17.14478, -22.67456, -36.32850, -25.11600, 11.06300,
13081, -1478.00000, 399.00000, 1581.00000, 12.12921, -20.74585, -23.77319, -36.32850, -25.11600, 11.06300,
13089, -1504.00000, 406.00000, 1558.00000, 14.93683, -23.24829, -24.81079, -36.32850, -25.11600, 11.06300,
13096, -1527.00000, 431.00000, 1516.00000, 18.23273, -26.30005, -26.82495, -36.32850, -25.11600, 11.06300,
13124, -1509.00000, 599.00000, 1324.00000, 24.09210, -43.45093, -40.67993, -36.32850, -25.11600, 11.06300,
13134, -1439.00000, 680.00000, 1296.00000, 21.16241, -52.72827, -50.01831, -36.32850, -25.11600, 11.06300,
13143, -1372.00000, 707.00000, 1316.00000, 17.68341, -60.90698, -60.15015, -36.32850, -25.11600, 11.06300,
13152, -1255.00000, 578.00000, 1343.00000, 16.40167, -66.58325, -71.13647, -36.32850, -25.11600, 11.06300,
13158, -1224.00000, 462.00000, 1405.00000, 19.75861, -65.42358, -77.72827, -36.32850, -25.11600, 11.06300,
13167, -1294.00000, 276.00000, 1543.00000, 28.05939, -62.92114, -84.50317, -36.32850, -25.11600, 11.06300,
13206, -1383.00000, 79.00000, 1630.00000, 81.77032, -105.95093, -105.37720, -37.22550, -25.71400, 11.66100,
13213, -1349.00000, 112.00000, 1583.00000, 83.23517, -112.05444, -111.17554, -37.22550, -25.71400, 11.66100,
13220, -1343.00000, 128.00000, 1507.00000, 83.05206, -118.34106, -116.72974, -37.22550, -25.71400, 11.66100,
13228, -1355.00000, 163.00000, 1399.00000, 81.58722, -124.26147, -121.30737, -37.22550, -25.71400, 11.66100,
13235, -1364.00000, 253.00000, 1314.00000, 77.68097, -131.03638, -124.90845, -37.22550, -25.71400, 11.66100,
13244, -1357.00000, 390.00000, 1267.00000, 70.66193, -139.39819, -126.06812, -46.94300, -22.72400, 18.08950,
13252, -1306.00000, 389.00000, 1287.00000, 64.25323, -148.79761, -126.98364, -46.94300, -22.72400, 18.08950,
13258, -1272.00000, 334.00000, 1304.00000, 61.81183, -154.90112, -129.42505, -46.94300, -22.72400, 18.08950,
13267, -1257.00000, 249.00000, 1288.00000, 60.04181, -162.53052, -133.39233, -46.94300, -22.72400, 18.08950,
13273, -1283.00000, 189.00000, 1251.00000, 58.63800, -166.98608, -134.79614, -46.94300, -22.72400, 18.08950,
13283, -1324.00000, 80.00000, 1166.00000, 53.51105, -174.37134, -134.61304, -46.94300, -22.72400, 18.08950,
13290, -1335.00000, -161.00000, 1171.00000, 27.87628, -195.00122, -135.28442, -53.22200, -23.92000, 20.18250,
13319, -1338.00000, -247.00000, 1234.00000, 22.38312, -202.08130, -134.12476, -53.22200, -23.92000, 20.18250,
13327, -1300.00000, -370.00000, 1351.00000, 16.70685, -210.26001, -133.14819, -53.22200, -23.92000, 20.18250,
13336, -1226.00000, -444.00000, 1476.00000, 11.64093, -215.14282, -130.76782, -53.22200, -23.92000, 20.18250,
13344, -1148.00000, -475.00000, 1563.00000, 8.40607, -213.06763, -128.44849, -60.99600, -23.32200, 21.37850,
13351, -1055.00000, -514.00000, 1658.00000, 5.72052, -206.04858, -125.33569, -60.99600, -23.32200, 21.37850,
13358, -982.00000, -552.00000, 1735.00000, 3.52325, -193.65845, -122.22290, -60.99600, -23.32200, 21.37850,
13365, -916.00000, -595.00000, 1808.00000, 2.11945, -180.59692, -120.88013, -60.99600, -23.32200, 21.37850,
13374, -855.00000, -649.00000, 1906.00000, 3.15704, -164.30054, -120.14771, -60.99600, -23.32200, 21.37850,
13383, -840.00000, -666.00000, 1978.00000, 7.12433, -150.01831, -119.29321, -60.99600, -23.32200, 21.37850,
13389, -849.00000, -654.00000, 2012.00000, 11.39679, -141.77856, -118.49976, -60.99600, -23.32200, 21.37850,
13397, -844.00000, -589.00000, 2037.00000, 15.60822, -132.01294, -116.11938, -67.12550, -22.57450, 20.03300,
13403, -816.00000, -554.00000, 2023.00000, 15.85236, -125.78735, -114.04419, -67.12550, -22.57450, 20.03300,
13413, -753.00000, -539.00000, 1996.00000, 16.88995, -112.78687, -109.22241, -67.12550, -22.57450, 20.03300,
13421, -775.00000, -500.00000, 2011.00000, 18.41583, -104.60815, -105.68237, -67.12550, -22.57450, 20.03300,
13428, -768.00000, -499.00000, 2056.00000, 17.92755, -103.63159, -107.02515, -67.12550, -22.57450, 20.03300,
13435, -652.00000, -443.00000, 2099.00000, 19.20929, -100.64087, -108.55103, -67.12550, -22.57450, 20.03300,
13444, -561.00000, -342.00000, 2144.00000, 20.85724, -94.53735, -105.62134, -72.50750, -19.58450, 19.58450,
13453, -512.00000, -316.00000, 2221.00000, 19.14825, -91.66870, -104.52271, -72.50750, -19.58450, 19.58450,
13459, -485.00000, -326.00000, 2278.00000, 19.94171, -90.87524, -103.85132, -72.50750, -19.58450, 19.58450,
13467, -474.00000, -319.00000, 2331.00000, 23.60382, -93.56079, -104.46167, -72.50750, -19.58450, 19.58450,
13473, -468.00000, -301.00000, 2367.00000, 25.74005, -99.17603, -106.47583, -72.50750, -19.58450, 19.58450,
13484, -458.00000, -282.00000, 2391.00000, 27.44904, -110.40649, -110.62622, -72.50750, -19.58450, 19.58450,
13491, -438.00000, -243.00000, 2371.00000, 26.53351, -119.01245, -113.25073, -75.79650, -16.59450, 18.23900,
13498, -396.00000, -180.00000, 2335.00000, 22.99347, -124.07837, -113.25073, -75.79650, -16.59450, 18.23900,
13505, -309.00000, -93.00000, 2291.00000, 15.36407, -124.99390, -109.83276, -75.79650, -16.59450, 18.23900,
13544, -73.00000, -284.00000, 2373.00000, -45.85419, -40.09399, -41.77856, -81.17850, -15.84700, 18.23900,
13574, -129.00000, -430.00000, 2436.00000, -30.53436, -40.15503, -35.06470, -81.17850, -15.84700, 18.23900,
13581, -191.00000, -511.00000, 2496.00000, -23.39325, -44.36646, -37.01782, -81.17850, -15.84700, 18.23900,
13590, -222.00000, -603.00000, 2526.00000, -20.03632, -54.25415, -50.99487, -83.57050, -15.24900, 16.29550,
13596, -198.00000, -658.00000, 2497.00000, -14.48212, -60.72388, -64.60571, -83.57050, -15.24900, 16.29550,
13608, -51.00000, -692.00000, 2395.00000, 5.65948, -65.48462, -87.12769, -83.57050, -15.24900, 16.29550,
13615, 37.00000, -666.00000, 2327.00000, 18.11066, -63.34839, -96.64917, -83.57050, -15.24900, 16.29550,
13647, 97.00000, -275.00000, 2248.00000, 39.96124, -11.46851, -99.88403, -81.02900, -14.95000, 12.70750,
13654, 98.00000, -198.00000, 2259.00000, 33.67462, 3.60718, -94.14673, -81.02900, -14.95000, 12.70750,
13661, 76.00000, -189.00000, 2295.00000, 29.15802, 26.12915, -90.72876, -81.02900, -14.95000, 12.70750,
13675, 93.00000, -263.00000, 2177.00000, 24.94659, 74.10278, -88.71460, -81.02900, -14.95000, 12.70750,
13680, 84.00000, -290.00000, 2130.00000, 21.77277, 88.69019, -85.78491, -81.02900, -14.95000, 12.70750,
13689, 42.00000, -334.00000, 2094.00000, 15.24200, 106.51245, -79.74243, -81.02900, -14.95000, 12.70750,
13695, -13.00000, -362.00000, 2062.00000, 10.42023, 113.89771, -75.83618, -81.02900, -14.95000, 12.70750,
13703, -133.00000, -374.00000, 2011.00000, 3.64532, 116.88843, -68.26782, -81.02900, -14.95000, 12.70750,
13712, -271.00000, -369.00000, 2002.00000, -2.51923, 112.31079, -58.56323, -81.02900, -14.95000, 12.70750,
13719, -376.00000, -353.00000, 2056.00000, -6.97479, 105.10864, -51.23901, -81.02900, -14.95000, 12.70750,
13727, -462.00000, -337.00000, 2130.00000, -11.85760, 94.30542, -46.66138, -81.02900, -14.95000, 12.70750,
13734, -525.00000, -329.00000, 2167.00000, -17.59491, 80.63354, -44.21997, -81.02900, -14.95000, 12.70750,
13741, -549.00000, -328.00000, 2157.00000, -24.91913, 62.99438, -41.16821, -81.02900, -14.95000, 12.70750,
13750, -554.00000, -328.00000, 2091.00000, -31.87714, 44.07349, -34.75952, -81.02900, -14.95000, 12.70750,
13758, -509.00000, -337.00000, 1999.00000, -36.75995, 30.15747, -27.13013, -81.02900, -14.95000, 12.70750,
13764, -444.00000, -347.00000, 1931.00000, -38.83514, 26.12915, -23.22388, -81.02900, -14.95000, 12.70750,
13773, -334.00000, -365.00000, 1857.00000, -40.29999, 29.11987, -19.13452, -81.02900, -14.95000, 12.70750,
13779, -271.00000, -379.00000, 1831.00000, -40.11688, 36.50513, -15.59448, -81.02900, -14.95000, 12.70750,
13789, -187.00000, -391.00000, 1830.00000, -37.30927, 52.13013, -8.51440, -81.02900, -14.95000, 12.70750,
13796, -303.00000, -440.00000, 1921.00000, -26.01776, 59.57642, -7.84302, -81.02900, -14.95000, 12.70750,
13822, -352.00000, -490.00000, 1942.00000, -27.17743, 54.69360, -7.65991, -81.02900, -14.95000, 12.70750,
13829, -362.00000, -537.00000, 1930.00000, -29.13055, 51.58081, -3.87573, -81.02900, -14.95000, 12.70750,
13838, -359.00000, -516.00000, 1905.00000, -32.67059, 50.97046, 5.70679, -77.59050, -10.91350, 19.28550,
13847, -394.00000, -390.00000, 1894.00000, -38.46893, 48.52905, 15.04517, -77.59050, -10.91350, 19.28550,
13853, -392.00000, -319.00000, 1888.00000, -45.24384, 44.31763, 19.37866, -77.59050, -10.91350, 19.28550,
13862, -373.00000, -317.00000, 1900.00000, -60.50262, 37.72583, 22.79663, -77.59050, -10.91350, 19.28550,
13868, -378.00000, -366.00000, 1919.00000, -70.63446, 32.59888, 24.62769, -77.59050, -10.91350, 19.28550,
13878, -419.00000, -483.00000, 2022.00000, -80.03387, 19.47632, 27.92358, -77.59050, -10.91350, 19.28550,
13885, -420.00000, -580.00000, 2007.00000, -79.42352, 12.27417, 29.20532, -75.94600, -12.70750, 19.13600,
13893, -427.00000, -697.00000, 1911.00000, -76.06659, 7.08618, 26.82495, -75.94600, -12.70750, 19.13600,
13900, -456.00000, -773.00000, 1843.00000, -74.78485, 2.99683, 21.57593, -75.94600, -12.70750, 19.13600,
13908, -463.00000, -781.00000, 1834.00000, -71.97723, -0.84839, 15.16724, -75.94600, -12.70750, 19.13600,
13918, -455.00000, -748.00000, 1867.00000, -65.26337, -0.72632, 12.05444, -75.94600, -12.70750, 19.13600,
13924, -467.00000, -735.00000, 1874.00000, -61.66229, -0.97046, 11.99341, -75.94600, -12.70750, 19.13600,
13933, -489.00000, -650.00000, 1814.00000, -54.70428, -10.61401, 7.17163, -75.94600, -12.70750, 19.13600,
13939, -466.00000, -522.00000, 1833.00000, -56.16913, -18.85376, 0.09155, -76.09550, -17.34200, 20.33200,
13948, -408.00000, -324.00000, 1936.00000, -67.52167, -32.95288, -13.51929, -76.09550, -17.34200, 20.33200,
13957, -367.00000, -285.00000, 2016.00000, -81.01044, -44.48853, -33.41675, -76.09550, -17.34200, 20.33200,
13964, -339.00000, -467.00000, 1983.00000, -88.94501, -52.97241, -47.27173, -76.09550, -17.34200, 20.33200,
13972, -248.00000, -699.00000, 1925.00000, -84.24530, -55.41382, -56.06079, -76.09550, -17.34200, 20.33200,
13979, -148.00000, -905.00000, 1939.00000, -64.53094, -43.69507, -69.06128, -76.09550, -17.34200, 20.33200,
13989, -48.00000, -1071.00000, 2001.00000, -48.17352, -11.83472, -72.17407, -77.29150, -19.58450, 18.53800,
13996, -80.00000, -1081.00000, 2013.00000, -38.34686, 8.12378, -69.85474, -77.29150, -19.58450, 18.53800,
14004, -138.00000, -1121.00000, 2092.00000, -17.35077, 37.29858, -63.01880, -77.29150, -19.58450, 18.53800,
14010, -199.00000, -1184.00000, 2101.00000, -0.07782, 57.68433, -57.28149, -77.29150, -19.58450, 18.53800,
14019, -317.00000, -1223.00000, 2025.00000, 23.11554, 81.61011, -51.72729, -77.29150, -19.58450, 18.53800,
14028, -449.00000, -1162.00000, 1923.00000, 42.70782, 94.12231, -53.37524, -77.29150, -19.58450, 18.53800,
14035, -523.00000, -1091.00000, 1888.00000, 51.43585, 93.63403, -58.56323, -74.00250, -16.14600, 19.28550,
14043, -611.00000, -977.00000, 1870.00000, 56.99005, 84.90601, -63.69019, -74.00250, -16.14600, 19.28550,
14050, -707.00000, -802.00000, 1868.00000, 31.29425, 49.56665, -45.44067, -74.00250, -16.14600, 19.28550,
14079, -623.00000, -770.00000, 1818.00000, 13.22784, 51.70288, -30.91431, -74.00250, -16.14600, 19.28550,
14088, -499.00000, -729.00000, 1765.00000, -10.82001, 49.50562, -15.28931, -72.65700, -13.45500, 21.22900,
14096, -368.00000, -683.00000, 1729.00000, -32.60956, 38.03101, -2.71606, -72.65700, -13.45500, 21.22900,
14102, -283.00000, -653.00000, 1714.00000, -45.42694, 28.14331, 3.02124, -72.65700, -13.45500, 21.22900,
14111, -234.00000, -620.00000, 1686.00000, -59.70917, 13.25073, 6.80542, -72.65700, -13.45500, 21.22900,
14117, -268.00000, -605.00000, 1694.00000, -66.05682, 0.49438, 7.72095, -72.65700, -13.45500, 21.22900,
14128, -357.00000, -597.00000, 1694.00000, -66.42303, -26.36108, 6.07300, -72.65700, -13.45500, 21.22900,
14135, -416.00000, -636.00000, 1711.00000, -57.32880, -44.79370, -1.55640, -74.00250, -18.38850, 20.33200,
14142, -461.00000, -703.00000, 1735.00000, -43.16864, -56.75659, -14.86206, -74.00250, -18.38850, 20.33200,
14150, -269.00000, -890.00000, 1998.00000, -28.52020, -62.06665, -32.13501, -74.00250, -18.38850, 20.33200,
14159, -69.00000, -1030.00000, 2152.00000, -25.04120, -53.58276, -38.72681, -74.00250, -18.38850, 20.33200,
14167, -329.00000, -904.00000, 1920.00000, -26.32294, -54.49829, -44.76929, -74.00250, -18.38850, 20.33200,
14174, -398.00000, -782.00000, 1803.00000, -27.42157, -56.93970, -51.42212, -74.00250, -18.38850, 20.33200,
14182, -373.00000, -774.00000, 1738.00000, -33.46405, -55.59692, -56.06079, -76.69350, -15.24900, 19.13600,
14188, -385.00000, -829.00000, 1714.00000, -36.69891, -55.16968, -55.81665, -76.69350, -15.24900, 19.13600,
14199, -400.00000, -844.00000, 1609.00000, -40.54413, -57.30591, -53.98560, -76.69350, -15.24900, 19.13600,
14206, -389.00000, -835.00000, 1653.00000, -33.76923, -54.55933, -54.16870, -76.69350, -15.24900, 19.13600,
14213, -364.00000, -776.00000, 1751.00000, -22.05048, -48.76099, -57.28149, -76.69350, -15.24900, 19.13600,
14221, -295.00000, -769.00000, 1897.00000, -12.04071, -34.60083, -58.01392, -76.69350, -15.24900, 19.13600,
14228, -220.00000, -837.00000, 1944.00000, -8.19550, -16.47339, -54.71802, -76.69350, -15.24900, 19.13600,
14239, -116.00000, -960.00000, 1940.00000, -10.45380, 12.76245, -45.56274, -75.64700, -15.99650, 18.38850,
14245, -86.00000, -1004.00000, 1944.00000, -14.36005, 28.93677, -41.22925, -75.64700, -15.99650, 18.38850,
14253, -144.00000, -1058.00000, 1942.00000, -21.37909, 48.52905, -32.80640, -75.64700, -15.99650, 18.38850,
14260, -234.00000, -1074.00000, 1943.00000, -25.52948, 57.50122, -25.42114, -75.64700, -15.99650, 18.38850,
14268, -403.00000, -1093.00000, 1940.00000, -29.80194, 64.21509, -16.81519, -75.64700, -15.99650, 18.38850,
14277, -558.00000, -1091.00000, 1884.00000, -33.46405, 64.82544, -13.76343, -75.64700, -15.99650, 18.38850,
14285, -612.00000, -1095.00000, 1838.00000, -36.45477, 64.33716, -14.55688, -75.79650, -16.14600, 21.37850,
14292, -629.00000, -1124.00000, 1766.00000, -39.44550, 67.38892, -15.96069, -75.79650, -16.14600, 21.37850,
14300, -603.00000, -1144.00000, 1768.00000, -47.44110, 85.02808, -14.19067, -75.79650, -16.14600, 21.37850,
14330, -538.00000, -1118.00000, 1819.00000, -44.26727, 78.43628, -15.28931, -75.79650, -16.14600, 21.37850,
14336, -491.00000, -1087.00000, 1818.00000, -39.75067, 69.58618, -17.85278, -75.79650, -16.14600, 21.37850,
14345, -466.00000, -1000.00000, 1766.00000, -30.47333, 52.49634, -24.50562, -75.79650, -16.14600, 21.37850,
14351, -497.00000, -942.00000, 1723.00000, -23.21014, 39.25171, -29.14429, -75.79650, -16.14600, 21.37850,
14360, -559.00000, -881.00000, 1689.00000, -12.46796, 22.89429, -32.80640, -75.79650, -16.14600, 21.37850,
14369, -596.00000, -864.00000, 1651.00000, -2.21405, 12.15210, -33.17261, -75.79650, -16.14600, 21.37850,
14376, -604.00000, -868.00000, 1612.00000, 2.79083, 4.76685, -29.81567, -75.79650, -16.14600, 21.37850,
14384, -577.00000, -877.00000, 1621.00000, 3.64532, 0.61646, -26.33667, -75.79650, -16.14600, 21.37850,
14391, -558.00000, -902.00000, 1663.00000, 3.03497, 0.12817, -20.90454, -75.79650, -16.14600, 21.37850,
14399, -543.00000, -902.00000, 1709.00000, 0.16632, -0.17700, -15.04517, -75.79650, -16.14600, 21.37850,
14408, -496.00000, -873.00000, 1730.00000, -8.50067, -4.57153, -7.23267, -75.79650, -16.14600, 21.37850,
14416, -442.00000, -792.00000, 1673.00000, -21.31805, -3.59497, 2.65503, -75.79650, -16.14600, 21.37850,
14422, -375.00000, -721.00000, 1588.00000, -31.87714, 6.65894, 11.62720, -75.79650, -16.14600, 21.37850,
14431, -293.00000, -675.00000, 1521.00000, -43.41278, 31.25610, 23.95630, -75.79650, -16.14600, 21.37850,
14437, -267.00000, -699.00000, 1527.00000, -46.83075, 47.49146, 31.64673, -75.79650, -16.14600, 21.37850,
14448, -317.00000, -818.00000, 1571.00000, -47.86835, 61.46851, 39.45923, -75.79650, -16.14600, 21.37850,
14455, -408.00000, -943.00000, 1622.00000, -47.86835, 61.71265, 39.39819, -75.79650, -16.14600, 21.37850,
14462, -493.00000, -1053.00000, 1669.00000, -46.09833, 56.46362, 33.96606, -75.79650, -16.14600, 21.37850,
14470, -586.00000, -1197.00000, 1714.00000, -42.43622, 48.52905, 26.45874, -75.79650, -16.14600, 21.37850,
14479, -649.00000, -1352.00000, 1760.00000, -33.28094, 36.50513, 15.96069, -68.91950, -21.37850, 19.58450,
14487, -658.00000, -1454.00000, 1780.00000, -20.95184, 27.22778, 7.47681, -68.91950, -21.37850, 19.58450,
14494, -652.00000, -1469.00000, 1780.00000, -11.61346, 22.83325, 0.09155, -68.91950, -21.37850, 19.58450,
14502, -668.00000, -1412.00000, 1767.00000, 1.14288, 17.95044, -13.09204, -68.91950, -21.37850, 19.58450,
14508, -725.00000, -1343.00000, 1785.00000, 8.28400, 12.94556, -26.03149, -68.91950, -21.37850, 19.58450,
14519, -823.00000, -1236.00000, 1853.00000, 14.99786, -4.02222, -52.15454, -68.91950, -21.37850, 19.58450,
14526, -792.00000, -1159.00000, 1847.00000, 17.07306, -19.64722, -64.30054, -68.91950, -21.37850, 19.58450,
14534, -734.00000, -1097.00000, 1838.00000, 18.65997, -30.87769, -68.20679, -70.41450, -21.82700, 20.33200,
14541, -625.00000, -1050.00000, 1819.00000, 19.20929, -36.12671, -65.64331, -70.41450, -21.82700, 20.33200,
14548, -516.00000, -1015.00000, 1809.00000, 18.17169, -33.19702, -56.79321, -70.41450, -21.82700, 20.33200,
14559, -395.00000, -937.00000, 1821.00000, -1.29852, 14.10522, -13.33618, -71.76000, -19.58450, 18.98650,
14588, -432.00000, -954.00000, 1814.00000, -3.37372, 15.44800, -12.17651, -71.76000, -19.58450, 18.98650,
14597, -500.00000, -973.00000, 1792.00000, -4.65546, 13.55591, -14.12964, -71.76000, -19.58450, 18.98650,
14603, -543.00000, -975.00000, 1778.00000, -4.47235, 10.62622, -16.87622, -71.76000, -19.58450, 18.98650,
14611, -584.00000, -983.00000, 1776.00000, -3.86200, 4.82788, -19.19556, -71.76000, -19.58450, 18.98650,
14621, -600.00000, -1007.00000, 1783.00000, -3.43475, -1.88599, -19.07349, -71.76000, -19.58450, 18.98650,
14628, -575.00000, -1044.00000, 1790.00000, -2.64130, -6.52466, -18.76831, -71.61050, -21.67750, 21.52800,
14635, -529.00000, -1080.00000, 1796.00000, -0.99335, -8.05054, -19.62280, -71.61050, -21.67750, 21.52800,
14643, -479.00000, -1121.00000, 1806.00000, 1.26495, -6.89087, -21.02661, -71.61050, -21.67750, 21.52800,
14653, -444.00000, -1168.00000, 1822.00000, 3.64532, -3.83911, -21.45386, -71.61050, -21.67750, 21.52800,
14659, -450.00000, -1190.00000, 1826.00000, 4.68292, -1.82495, -20.23315, -71.61050, -21.67750, 21.52800,
14667, -475.00000, -1210.00000, 1821.00000, 5.23224, -0.05493, -19.07349, -71.61050, -21.67750, 21.52800,
14673, -497.00000, -1230.00000, 1815.00000, 5.84259, 0.61646, -18.76831, -71.61050, -21.67750, 21.52800,
14682, -525.00000, -1244.00000, 1755.00000, 4.49982, -0.11597, -20.72144, -70.71350, -21.37850, 20.03300,
14693, -597.00000, -1169.00000, 1722.00000, 3.76740, -3.53394, -21.82007, -70.71350, -21.37850, 20.03300,
14698, -616.00000, -1133.00000, 1699.00000, 3.03497, -4.99878, -20.17212, -70.71350, -21.37850, 20.03300,
14704, -601.00000, -1109.00000, 1672.00000, 1.38702, -6.28052, -17.48657, -70.71350, -21.37850, 20.03300,
14710, -578.00000, -1098.00000, 1655.00000, -0.74921, -6.64673, -14.49585, -70.71350, -21.37850, 20.03300,
14717, -536.00000, -1079.00000, 1637.00000, -4.28925, -5.48706, -8.75854, -70.71350, -21.37850, 20.03300,
14749, -499.00000, -1278.00000, 1453.00000, -10.51483, 8.18481, 11.07788, -71.01250, -18.38850, 20.63100,
14785, -569.00000, -1163.00000, 1746.00000, 15.18097, -18.67065, -24.99390, -68.17200, -24.06950, 18.23900,
14796, -519.00000, -1070.00000, 1801.00000, 10.23712, -34.23462, -6.25610, -68.17200, -24.06950, 18.23900,
14832, -395.00000, -1053.00000, 1706.00000, 22.01691, -20.56274, 5.88989, -70.56400, -22.42500, 17.34200,
14893, -434.00000, -1071.00000, 1705.00000, 19.69757, -25.62866, 4.85229, -70.56400, -22.42500, 17.34200,
14915, -389.00000, -1246.00000, 1907.00000, 39.59503, -21.53931, -1.73950, -70.56400, -22.42500, 17.34200,
14928, -323.00000, -1166.00000, 1886.00000, 39.71710, -19.15894, -4.18091, -75.34800, -19.13600, 21.07950,
14963, -268.00000, -824.00000, 1809.00000, 10.78644, 13.92212, 10.10132, -75.34800, -19.13600, 21.07950,
14975, -212.00000, -865.00000, 1866.00000, 0.59357, 23.56567, 18.58521, -75.34800, -19.13600, 21.07950,
15010, -443.00000, -1025.00000, 1671.00000, -8.80585, 44.68384, 18.58521, -75.34800, -19.13600, 21.07950,
15028, -631.00000, -981.00000, 1794.00000, -10.57587, 5.13306, 12.96997, -75.34800, -19.13600, 21.07950,
15042, -524.00000, -1087.00000, 1818.00000, -9.53827, -9.69849, 11.62720, -75.34800, -19.13600, 21.07950,
15079, -341.00000, -1031.00000, 1837.00000, 1.75323, -20.13550, -3.50952, -75.34800, -19.13600, 21.07950,
15090, -403.00000, -1054.00000, 1741.00000, 2.60773, -9.63745, -9.91821, -70.71350, -20.63100, 17.49150,
15163, -500.00000, -1086.00000, 1723.00000, 1.81427, -12.44507, -7.41577, -70.71350, -20.63100, 17.49150,
15193, -382.00000, -1141.00000, 1751.00000, 0.71564, -21.78345, -18.64624, -74.30150, -19.58450, 20.33200,
15229, -269.00000, -925.00000, 1891.00000, -3.37372, -17.14478, -12.23755, -70.71350, -21.82700, 16.44500,
15240, -255.00000, -966.00000, 1831.00000, -3.31268, -17.26685, -13.15308, -70.71350, -21.82700, 16.44500,
15276, -320.00000, -1266.00000, 1926.00000, 9.26056, -10.12573, -6.37817, -73.25500, -20.33200, 16.14600,
15290, -267.00000, -1267.00000, 1907.00000, 21.58966, 2.69165, -2.22778, -73.25500, -20.33200, 16.14600,
15325, -324.00000, -976.00000, 1697.00000, 36.05499, -22.02759, -27.06909, -72.95600, -19.58450, 15.69750,
15338, -246.00000, -890.00000, 1670.00000, 37.33673, -30.45044, -26.39771, -72.95600, -19.58450, 15.69750,
15373, 41.00000, -1333.00000, 2139.00000, -2.82440, 31.74438, 40.37476, -76.99250, -21.97650, 13.75400,
15514, -16.00000, -1312.00000, 1730.00000, -5.57098, 124.76196, 69.30542, -76.99250, -21.97650, 13.75400,
15536, -155.00000, -1626.00000, 1983.00000, 24.03107, 152.83813, 13.58032, -73.10550, -23.47150, 15.24900,
15568, -706.00000, -980.00000, 1781.00000, 88.54523, 148.19946, -2.59399, -69.21850, -21.07950, 17.49150,
15575, -741.00000, -826.00000, 1785.00000, 94.46564, 135.13794, 4.48608, -69.21850, -21.07950, 17.49150,
15607, -822.00000, -555.00000, 1789.00000, 64.31427, 77.33765, 32.44019, -69.21850, -21.07950, 17.49150,
15615, -777.00000, -598.00000, 1754.00000, 53.32794, 69.21997, 36.77368, -69.21850, -21.07950, 17.49150,
15655, -569.00000, -899.00000, 1766.00000, 7.00226, 40.89966, 52.15454, -69.21850, -21.07950, 17.49150,
15682, -565.00000, -864.00000, 1850.00000, 16.15753, 52.19116, 37.99438, -69.21850, -21.07950, 17.49150,
15720, -968.00000, -562.00000, 1621.00000, 28.79181, 61.22437, 3.57056, -65.92950, -17.64100, 22.87350,
15728, -969.00000, -579.00000, 1606.00000, 23.54279, 51.70288, 10.34546, -65.92950, -17.64100, 22.87350,
15735, -943.00000, -598.00000, 1604.00000, 18.35480, 46.69800, 15.77759, -65.92950, -17.64100, 22.87350,
15745, -875.00000, -663.00000, 1601.00000, 13.22784, 41.87622, 18.03589, -65.92950, -17.64100, 22.87350,
15753, -888.00000, -708.00000, 1619.00000, 13.04474, 40.83862, 15.35034, -65.92950, -17.64100, 22.87350,
15760, -936.00000, -714.00000, 1607.00000, 10.90851, 38.27515, 13.94653, -65.92950, -17.64100, 22.87350,
15768, -987.00000, -662.00000, 1573.00000, 7.30743, 34.30786, 12.96997, -59.80000, -17.34200, 21.37850,
15777, -1021.00000, -586.00000, 1538.00000, 3.15704, 29.18091, 14.00757, -59.80000, -17.34200, 21.37850,
15786, -971.00000, -508.00000, 1562.00000, -1.84784, 24.54224, 17.91382, -59.80000, -17.34200, 21.37850,
15792, -938.00000, -481.00000, 1577.00000, -5.08270, 24.23706, 19.07349, -59.80000, -17.34200, 21.37850,
15822, -1039.00000, -714.00000, 1563.00000, -10.75897, 21.91772, 18.40210, -58.45450, -19.88350, 20.33200,
15831, -1084.00000, -685.00000, 1576.00000, -8.37860, 18.31665, 19.68384, -58.45450, -19.88350, 20.33200,
15842, -1084.00000, -577.00000, 1597.00000, -6.18134, 19.72046, 15.96069, -58.45450, -19.88350, 20.33200,
15849, -1152.00000, -657.00000, 1594.00000, -2.76337, 20.33081, 16.93726, -58.45450, -19.88350, 20.33200,
15857, -1190.00000, -730.00000, 1608.00000, -2.27509, 19.04907, 24.01733, -58.45450, -19.88350, 20.33200,
15864, -1192.00000, -708.00000, 1608.00000, -4.53339, 14.28833, 30.18188, -60.99600, -18.08950, 21.82700,
15872, -1179.00000, -706.00000, 1592.00000, -5.32684, 12.09106, 32.74536, -60.99600, -18.08950, 21.82700,
15888, -1149.00000, -781.00000, 1623.00000, -5.87616, 5.37720, 33.90503, -60.99600, -18.08950, 21.82700,
15896, -1122.00000, -831.00000, 1633.00000, -3.43475, 2.44751, 29.44946, -60.99600, -18.08950, 21.82700,
15904, -1089.00000, -817.00000, 1675.00000, -0.44403, 1.47095, 24.62769, -60.99600, -18.08950, 21.82700,
15913, -1033.00000, -683.00000, 1648.00000, -6.66962, 3.79028, 5.27954, -60.39800, -14.20250, 21.52800,
15940, -994.00000, -728.00000, 1620.00000, -7.76825, 5.19409, 4.05884, -60.39800, -14.20250, 21.52800,
15952, -1030.00000, -753.00000, 1627.00000, -7.09686, 6.65894, 2.10571, -60.39800, -14.20250, 21.52800,
15959, -1053.00000, -710.00000, 1639.00000, -5.75409, 6.59790, -0.57983, -60.39800, -14.20250, 21.52800,
15966, -1075.00000, -635.00000, 1655.00000, -4.53339, 7.94067, -2.53296, -60.09900, -14.20250, 23.02300,
15974, -1089.00000, -595.00000, 1673.00000, -5.81512, 9.28345, -1.49536, -60.09900, -14.20250, 23.02300,
15981, -1124.00000, -585.00000, 1681.00000, -8.25653, 9.64966, 1.25122, -60.09900, -14.20250, 23.02300,
15991, -1084.00000, -638.00000, 1714.00000, -10.14862, 9.34448, 3.20435, -60.09900, -14.20250, 23.02300,
15997, -1044.00000, -672.00000, 1736.00000, -9.72137, 10.68726, 3.50952, -60.09900, -14.20250, 23.02300,
16006, -1021.00000, -761.00000, 1728.00000, -7.76825, 14.10522, 3.44849, -60.09900, -14.20250, 23.02300,
16012, -1027.00000, -836.00000, 1700.00000, -5.02167, 17.15698, 2.22778, -59.35150, -14.50150, 22.72400,
16022, -1060.00000, -870.00000, 1648.00000, 0.28839, 20.75806, -0.88501, -59.35150, -14.50150, 22.72400,
16029, -1115.00000, -840.00000, 1602.00000, 2.91290, 22.22290, -3.32642, -59.35150, -14.50150, 22.72400,
16036, -1171.00000, -791.00000, 1575.00000, 3.64532, 21.42944, -3.32642, -59.35150, -14.50150, 22.72400,
16043, -1190.00000, -746.00000, 1565.00000, 3.46222, 19.72046, -1.98364, -59.35150, -14.50150, 22.72400,
16050, -1186.00000, -732.00000, 1567.00000, 3.03497, 17.82837, -1.31226, -59.35150, -14.50150, 22.72400,
16061, -1193.00000, -727.00000, 1561.00000, 2.30255, 15.14282, -2.65503, -58.90300, -14.20250, 22.72400,
16067, -1223.00000, -712.00000, 1572.00000, 2.24152, 12.94556, -3.93677, -58.90300, -14.20250, 22.72400,
16075, -1239.00000, -673.00000, 1570.00000, 0.77667, 6.59790, -6.31714, -58.90300, -14.20250, 22.72400,
16081, -1194.00000, -722.00000, 1550.00000, 1.02081, 3.54614, -6.07300, -58.90300, -14.20250, 22.72400,
16090, -1180.00000, -786.00000, 1572.00000, 3.95050, 0.12817, -8.08716, -58.90300, -14.20250, 22.72400,
16099, -1221.00000, -741.00000, 1591.00000, 6.57501, -5.48706, -13.45825, -58.90300, -14.20250, 22.72400,
16106, -1174.00000, -754.00000, 1582.00000, 8.34503, -9.82056, -13.82446, -58.90300, -14.20250, 22.72400,
16113, -1140.00000, -712.00000, 1552.00000, 8.65021, -12.07886, -10.58960, -58.90300, -14.50150, 20.93000,
16120, -1127.00000, -669.00000, 1519.00000, 7.24640, -12.56714, -9.00269, -58.90300, -14.50150, 20.93000,
16128, -1114.00000, -664.00000, 1499.00000, 5.11017, -12.87231, -8.45337, -58.90300, -14.50150, 20.93000,
16137, -1078.00000, -650.00000, 1493.00000, 2.30255, -12.56714, -7.78198, -58.90300, -14.50150, 20.93000,
16145, -1079.00000, -654.00000, 1506.00000, 0.95978, -11.10229, -7.41577, -58.90300, -14.50150, 20.93000,
16151, -1094.00000, -659.00000, 1528.00000, 0.77667, -10.00366, -6.74438, -58.90300, -14.50150, 20.93000,
16160, -1091.00000, -643.00000, 1564.00000, 0.83771, -9.14917, -6.13403, -59.80000, -12.85700, 23.17250,
16166, -998.00000, -675.00000, 1615.00000, 1.44806, -0.72632, -10.10132, -59.80000, -12.85700, 23.17250,
16196, -1049.00000, -723.00000, 1645.00000, 0.77667, 2.20337, -9.79614, -59.80000, -12.85700, 23.17250,
16203, -1077.00000, -790.00000, 1666.00000, 1.14288, 3.24097, -8.51440, -59.80000, -12.85700, 23.17250,
16210, -1082.00000, -829.00000, 1675.00000, 2.18048, 3.97339, -7.47681, -59.80000, -16.59450, 23.17250,
16218, -1094.00000, -828.00000, 1683.00000, 3.34015, 5.01099, -6.98853, -59.80000, -16.59450, 23.17250,
16225, -1105.00000, -791.00000, 1685.00000, 3.82843, 5.80444, -6.92749, -59.80000, -16.59450, 23.17250,
16236, -1137.00000, -803.00000, 1693.00000, 3.76740, 5.49927, -4.48608, -59.80000, -16.59450, 23.17250,
16242, -1154.00000, -781.00000, 1696.00000, 3.64532, 4.94995, -3.44849, -59.80000, -16.59450, 23.17250,
16251, -1128.00000, -769.00000, 1675.00000, 2.66876, 4.15649, -2.59399, -59.80000, -16.59450, 23.17250,
16257, -1115.00000, -771.00000, 1650.00000, 2.24152, 4.15649, -2.04468, -59.80000, -16.59450, 23.17250,
16265, -1131.00000, -785.00000, 1630.00000, 2.72980, 3.72925, -2.65503, -59.80000, -16.59450, 23.17250,
16271, -1155.00000, -802.00000, 1636.00000, 3.64532, 3.66821, -3.63159, -59.80000, -16.59450, 23.17250,
16279, -1158.00000, -831.00000, 1631.00000, 6.14777, 4.27856, -5.46265, -59.80000, -16.59450, 23.17250,
16287, -1135.00000, -846.00000, 1629.00000, 7.91779, 4.82788, -6.98853, -59.80000, -16.59450, 23.17250,
16295, -1125.00000, -822.00000, 1615.00000, 9.13849, 5.31616, -9.30786, -59.80000, -16.59450, 23.17250,
16304, -1131.00000, -793.00000, 1595.00000, 9.26056, 5.19409, -11.74927, -59.80000, -16.59450, 23.17250,
16311, -1142.00000, -786.00000, 1582.00000, 8.89435, 4.76685, -12.17651, -59.80000, -16.59450, 23.17250,
16319, -1143.00000, -765.00000, 1567.00000, 8.16193, 3.05786, -11.62720, -59.80000, -16.59450, 23.17250,
16326, -1114.00000, -731.00000, 1559.00000, 7.61261, 1.34888, -10.52856, -59.80000, -16.59450, 23.17250,
16333, -1204.00000, -739.00000, 1533.00000, 7.00226, -1.21460, -2.71606, -59.80000, -16.59450, 23.17250,
16342, -1217.00000, -706.00000, 1544.00000, 7.06329, -7.56226, 8.51440, -59.80000, -16.59450, 23.17250,
16351, -1141.00000, -655.00000, 1554.00000, 7.67365, -11.28540, 11.74927, -59.80000, -16.59450, 23.17250,
16357, -1049.00000, -642.00000, 1575.00000, 6.57501, -10.36987, 11.19995, -59.80000, -16.59450, 23.17250,
16365, -901.00000, -644.00000, 1630.00000, 5.23224, -4.63257, 7.90405, -59.80000, -16.59450, 23.17250,
16371, -838.00000, -664.00000, 1663.00000, 4.25568, 2.32544, 3.99780, -59.80000, -16.59450, 23.17250,
16381, -872.00000, -721.00000, 1640.00000, 4.01154, 11.66382, 0.45776, -59.80000, -16.59450, 23.17250,
16388, -920.00000, -766.00000, 1618.00000, 4.31671, 17.27905, -2.10571, -59.80000, -16.59450, 23.17250,
16396, -991.00000, -812.00000, 1591.00000, 6.94122, 21.97876, -3.57056, -59.80000, -16.59450, 23.17250,
16403, -1057.00000, -834.00000, 1560.00000, 11.03058, 25.70190, -3.38745, -59.80000, -16.59450, 23.17250,
16410, -1079.00000, -843.00000, 1545.00000, 13.65509, 27.53296, -2.34985, -59.80000, -13.60450, 24.21900,
16420, -1064.00000, -748.00000, 1516.00000, 24.70245, 36.50513, -6.80542, -59.80000, -13.60450, 24.21900,
16446, -1035.00000, -641.00000, 1535.00000, 23.84796, 39.61792, -6.98853, -59.80000, -13.60450, 24.21900,
16454, -1040.00000, -572.00000, 1557.00000, 17.68341, 44.74487, -7.23267, -59.80000, -13.60450, 24.21900,
16460, -1094.00000, -581.00000, 1587.00000, 11.15265, 49.38354, -5.76782, -56.21200, -15.39850, 22.42500,
16468, -1246.00000, -636.00000, 1616.00000, 2.36359, 54.38843, -1.00708, -56.21200, -15.39850, 22.42500,
16477, -1442.00000, -685.00000, 1649.00000, -3.61786, 51.45874, 4.60815, -56.21200, -15.39850, 22.42500,
16484, -1592.00000, -667.00000, 1642.00000, -6.97479, 43.15796, 10.89478, -56.21200, -15.39850, 22.42500,
16492, -1672.00000, -626.00000, 1634.00000, -10.14862, 27.47192, 19.13452, -56.21200, -15.39850, 22.42500,
16499, -1666.00000, -579.00000, 1637.00000, -12.71210, 9.16138, 24.93286, -56.21200, -15.39850, 22.42500,
16506, -1420.00000, -668.00000, 1745.00000, -10.75897, -5.91431, 23.77319, -57.25850, -16.59450, 23.92000,
16515, -1298.00000, -661.00000, 1769.00000, 0.22736, -12.56714, 17.05933, -57.25850, -16.59450, 23.92000,
16523, -1112.00000, -610.00000, 1756.00000, 4.92706, -14.33716, 10.77271, -57.25850, -16.59450, 23.92000,
16529, -930.00000, -578.00000, 1737.00000, 7.36847, -5.36499, 1.80054, -57.25850, -16.59450, 23.92000,
16538, -876.00000, -492.00000, 1714.00000, 6.88019, 18.62183, -9.73511, -57.25850, -16.59450, 23.92000,
16547, -1081.00000, -448.00000, 1621.00000, 1.08185, 37.84790, -18.03589, -57.25850, -16.59450, 23.92000,
16554, -1224.00000, -443.00000, 1552.00000, -7.09686, 39.00757, -21.88110, -57.10900, -16.44500, 25.11600,
16561, -1290.00000, -501.00000, 1563.00000, -13.74969, 35.71167, -20.72144, -57.10900, -16.44500, 25.11600,
16568, -1298.00000, -582.00000, 1590.00000, -16.31317, 33.75854, -17.05933, -57.10900, -16.44500, 25.11600,
16575, -1306.00000, -679.00000, 1579.00000, -17.59491, 30.82886, -14.67896, -57.10900, -16.44500, 25.11600,
16584, -1314.00000, -756.00000, 1562.00000, -17.04559, 25.21362, -13.09204, -57.10900, -16.44500, 25.11600,
16593, -1339.00000, -810.00000, 1539.00000, -14.97040, 20.33081, -10.89478, -57.10900, -16.44500, 25.11600,
16599, -1346.00000, -806.00000, 1544.00000, -13.01727, 16.79077, -7.65991, -57.10900, -16.44500, 25.11600,
16607, -1292.00000, -798.00000, 1535.00000, -10.88104, 15.20386, -3.44849, -56.81000, -14.50150, 23.32200,
16613, -1257.00000, -752.00000, 1536.00000, -8.56171, 17.88940, -0.57983, -56.81000, -14.50150, 23.32200,
16623, -1262.00000, -676.00000, 1469.00000, -10.14862, 22.71118, 4.24194, -56.81000, -14.50150, 23.32200,
16630, -1285.00000, -619.00000, 1438.00000, -14.54315, 24.90845, 8.63647, -56.81000, -14.50150, 23.32200,
16638, -1301.00000, -591.00000, 1438.00000, -19.91425, 25.76294, 12.35962, -56.81000, -14.50150, 23.32200,
16645, -1310.00000, -604.00000, 1438.00000, -25.28534, 24.78638, 15.77759, -56.81000, -14.50150, 23.32200,
16652, -1289.00000, -644.00000, 1443.00000, -29.37469, 21.97876, 19.50073, -55.91300, -16.59450, 23.32200,
16662, -1245.00000, -729.00000, 1458.00000, -32.79266, 19.53735, 24.50562, -55.91300, -16.59450, 25.71400,
16668, -1243.00000, -743.00000, 1458.00000, -33.21991, 20.14771, 26.03149, -55.91300, -16.59450, 25.71400,
16676, -1286.00000, -853.00000, 1368.00000, -35.60028, 11.66382, 19.50073, -55.91300, -16.59450, 25.71400,
16701, -1315.00000, -873.00000, 1347.00000, -35.60028, 13.00659, 18.34106, -55.91300, -16.59450, 25.71400,
16711, -1382.00000, -849.00000, 1327.00000, -34.50165, 13.61694, 16.26587, -54.71700, -15.84700, 23.17250,
16719, -1423.00000, -818.00000, 1311.00000, -33.52509, 11.48071, 14.73999, -54.71700, -15.84700, 23.17250,
16726, -1454.00000, -799.00000, 1309.00000, -32.67059, 7.45239, 13.88550, -54.71700, -15.84700, 23.17250,
16733, -1433.00000, -788.00000, 1328.00000, -31.63300, 1.95923, 13.82446, -54.71700, -15.84700, 23.17250,
16740, -1372.00000, -782.00000, 1354.00000, -30.47333, -1.27563, 15.10620, -54.71700, -15.84700, 23.17250,
16750, -1326.00000, -767.00000, 1387.00000, -28.64227, -1.51978, 16.02173, -54.71700, -15.84700, 23.17250,
16756, -1336.00000, -779.00000, 1378.00000, -28.70331, -1.27563, 15.59448, -54.56750, -19.73400, 24.06950,
16765, -1349.00000, -791.00000, 1353.00000, -29.43573, -0.42114, 15.53345, -54.56750, -19.73400, 24.06950,
16771, -1343.00000, -808.00000, 1332.00000, -30.53436, 1.89819, 17.36450, -54.56750, -19.73400, 24.06950,
16779, -1360.00000, -826.00000, 1295.00000, -32.67059, 8.36792, 23.16284, -54.56750, -19.73400, 24.06950,
16788, -1399.00000, -819.00000, 1276.00000, -35.53925, 15.50903, 31.76880, -54.56750, -19.73400, 24.06950,
16795, -1412.00000, -819.00000, 1269.00000, -39.26239, 19.35425, 37.75024, -54.56750, -19.73400, 24.06950,
16802, -1399.00000, -851.00000, 1259.00000, -42.07001, 22.89429, 42.02271, -53.82000, -19.73400, 22.72400,
16809, -1406.00000, -853.00000, 1270.00000, -41.88690, 21.67358, 42.69409, -53.82000, -19.73400, 22.72400,
16817, -1412.00000, -859.00000, 1290.00000, -40.78827, 15.69214, 39.33716, -53.82000, -19.73400, 22.72400,
16826, -1391.00000, -851.00000, 1302.00000, -38.04169, 7.39136, 31.95190, -53.82000, -19.73400, 22.72400,
16834, -1381.00000, -824.00000, 1302.00000, -34.62372, 2.26440, 25.23804, -53.82000, -19.73400, 22.72400,
16840, -1388.00000, -810.00000, 1312.00000, -33.03680, -0.05493, 22.43042, -53.82000, -19.73400, 22.72400,
16848, -1381.00000, -827.00000, 1335.00000, -31.75507, -1.58081, 22.12524, -53.82000, -19.73400, 22.72400,
16857, -1381.00000, -883.00000, 1365.00000, -30.10712, -0.17700, 26.39771, -53.22200, -22.42500, 21.22900,
16864, -1399.00000, -925.00000, 1383.00000, -28.82538, 2.14233, 29.38843, -53.22200, -22.42500, 21.22900,
16872, -1402.00000, -962.00000, 1397.00000, -27.72675, 4.82788, 30.91431, -53.22200, -22.42500, 21.22900,
16879, -1361.00000, -951.00000, 1414.00000, -27.29950, 8.97827, 30.85327, -53.22200, -22.42500, 21.22900,
16886, -1329.00000, -935.00000, 1417.00000, -25.95673, 16.11938, 29.87671, -53.22200, -22.42500, 21.22900,
16895, -1349.00000, -911.00000, 1408.00000, -24.18671, 25.94604, 28.10669, -53.22200, -22.42500, 21.22900,
16903, -1407.00000, -883.00000, 1415.00000, -22.72186, 33.45337, 25.17700, -53.22200, -22.42500, 21.22900,
16909, -1429.00000, -843.00000, 1393.00000, -22.53876, 36.13892, 23.65112, -53.22200, -22.42500, 21.22900,
16918, -1461.00000, -822.00000, 1334.00000, -23.88153, 39.86206, 22.12524, -53.22200, -22.42500, 21.22900,
16924, -1495.00000, -822.00000, 1304.00000, -24.24774, 41.08276, 20.35522, -53.22200, -22.42500, 21.22900,
16934, -1595.00000, -849.00000, 1287.00000, -16.49628, 19.35425, 0.21362, -53.22200, -22.42500, 21.22900,
16961, -1584.00000, -838.00000, 1279.00000, -13.81073, 14.83765, -1.86157, -53.22200, -22.42500, 21.22900,
16968, -1563.00000, -825.00000, 1272.00000, -11.85760, 11.84692, -2.47192, -53.22200, -22.42500, 21.22900,
16975, -1519.00000, -818.00000, 1263.00000, -11.00311, 10.56519, -2.89917, -53.22200, -22.42500, 21.22900,
16982, -1464.00000, -818.00000, 1250.00000, -10.75897, 12.03003, -3.75366, -53.22200, -22.42500, 21.22900,
16993, -1420.00000, -819.00000, 1245.00000, -10.57587, 18.07251, -5.21851, -53.22200, -22.42500, 21.22900,
16998, -1421.00000, -820.00000, 1248.00000, -10.94208, 21.30737, -6.07300, -53.22200, -22.42500, 21.22900,
17007, -1439.00000, -822.00000, 1250.00000, -11.55243, 25.39673, -8.08716, -53.22200, -22.42500, 21.22900,
17013, -1454.00000, -816.00000, 1235.00000, -11.55243, 26.98364, -10.22339, -53.22200, -22.42500, 21.22900,
17023, -1486.00000, -801.00000, 1207.00000, -10.94208, 27.04468, -14.12964, -53.22200, -22.42500, 21.22900,
17030, -1503.00000, -794.00000, 1193.00000, -10.33173, 23.93188, -16.81519, -53.22200, -22.42500, 21.22900,
17037, -1488.00000, -774.00000, 1192.00000, -9.59930, 21.55151, -18.76831, -53.22200, -22.42500, 21.22900,
17044, -1457.00000, -780.00000, 1185.00000, -8.68378, 19.41528, -20.90454, -53.22200, -22.42500, 21.22900,
17052, -1578.00000, -762.00000, 1092.00000, -11.18622, 9.52759, -22.91870, -52.17550, -22.87350, 21.07950,
17062, -1554.00000, -807.00000, 1061.00000, -12.10175, -3.35083, -25.42114, -52.17550, -22.87350, 21.07950,
17068, -1521.00000, -860.00000, 1066.00000, -10.14862, -7.31812, -25.84839, -52.17550, -22.87350, 21.07950,
17076, -1472.00000, -940.00000, 1112.00000, -5.38788, -9.82056, -26.76392, -52.17550, -22.87350, 21.07950,
17082, -1438.00000, -993.00000, 1149.00000, -0.99335, -10.36987, -28.47290, -52.17550, -22.87350, 21.07950,
17090, -1405.00000, -1052.00000, 1205.00000, 6.45294, -9.21021, -31.76880, -52.17550, -22.87350, 21.07950,
17099, -1377.00000, -1078.00000, 1224.00000, 13.65509, -6.52466, -35.73608, -51.72700, -22.72400, 19.13600,
17107, -1395.00000, -1066.00000, 1253.00000, 18.11066, -3.71704, -37.87231, -51.72700, -22.72400, 19.13600,
17114, -1434.00000, -1045.00000, 1283.00000, 22.32208, 1.71509, -36.59058, -51.72700, -22.72400, 19.13600,
17121, -1527.00000, -1009.00000, 1253.00000, 22.93243, 3.97339, -32.13501, -51.72700, -22.72400, 19.13600,
17131, -1454.00000, -1038.00000, 1215.00000, 20.06378, 4.03442, -24.13940, -51.72700, -22.72400, 19.13600,
17137, -1494.00000, -1012.00000, 1211.00000, 18.78204, 6.71997, -19.37866, -51.72700, -22.72400, 19.13600,
17146, -1579.00000, -964.00000, 1220.00000, 14.99786, 6.47583, -13.15308, -51.72700, -22.72400, 19.13600,
17151, -1585.00000, -959.00000, 1213.00000, 12.00714, 4.70581, -7.78198, -49.78350, -24.36850, 20.03300,
17160, -1484.00000, -1052.00000, 1206.00000, 10.78644, 4.27856, 4.11987, -49.78350, -24.36850, 20.03300,
17169, -1491.00000, -970.00000, 1241.00000, 12.67853, 7.69653, 12.60376, -49.78350, -24.36850, 20.03300,
17176, -1510.00000, -927.00000, 1277.00000, 13.59406, 7.69653, 12.42065, -49.78350, -24.36850, 20.03300,
17184, -1431.00000, -830.00000, 1321.00000, 15.24200, -6.89087, 2.16675, -51.57750, -21.82700, 22.42500,
17209, -1396.00000, -826.00000, 1321.00000, 15.18097, -5.91431, 2.28882, -51.57750, -21.82700, 22.42500,
17217, -1388.00000, -819.00000, 1306.00000, 13.65509, -3.10669, 1.80054, -51.57750, -21.82700, 22.42500,
17226, -1412.00000, -803.00000, 1264.00000, 10.35919, -0.66528, 1.98364, -51.57750, -21.82700, 22.42500,
17234, -1410.00000, -801.00000, 1247.00000, 6.26984, 2.02026, 3.50952, -51.57750, -21.82700, 22.42500,
17240, -1415.00000, -827.00000, 1245.00000, 4.56085, 5.31616, 5.70679, -51.57750, -21.82700, 22.42500,
17249, -1469.00000, -905.00000, 1215.00000, 3.88947, 5.37720, 9.42993, -52.02600, -23.47150, 19.13600,
17255, -1527.00000, -933.00000, 1192.00000, 5.04913, 2.38647, 11.01685, -52.02600, -23.47150, 19.13600,
17266, -1528.00000, -933.00000, 1172.00000, 8.28400, -2.13013, 12.05444, -52.02600, -23.47150, 19.13600,
17273, -1513.00000, -922.00000, 1152.00000, 10.35919, -4.69360, 12.54272, -52.02600, -23.47150, 19.13600,
17280, -1503.00000, -937.00000, 1135.00000, 10.96954, -6.70776, 12.84790, -52.02600, -23.47150, 19.13600,
17288, -1333.00000, -1038.00000, 1121.00000, 14.63165, -4.57153, 21.45386, -52.02600, -23.47150, 19.13600,
17295, -1351.00000, -947.00000, 1112.00000, 18.65997, 2.87476, 26.21460, -50.38150, -23.62100, 22.42500,
17305, -1416.00000, -817.00000, 1153.00000, 21.40656, 11.35864, 20.66040, -50.38150, -23.62100, 22.42500,
17311, -1458.00000, -801.00000, 1165.00000, 20.49103, 12.82349, 15.41138, -50.38150, -23.62100, 22.42500,
17320, -1471.00000, -763.00000, 1173.00000, 18.11066, 13.06763, 9.55200, -50.38150, -23.62100, 22.42500,
17326, -1450.00000, -762.00000, 1167.00000, 15.97443, 13.67798, 5.88989, -50.38150, -23.62100, 22.42500,
17335, -1396.00000, -797.00000, 1156.00000, 14.14337, 15.93628, 2.96021, -50.38150, -23.62100, 22.42500,
17344, -1372.00000, -828.00000, 1167.00000, 14.38751, 20.39185, 1.00708, -49.93300, -23.47150, 21.97650,
17351, -1388.00000, -842.00000, 1186.00000, 15.60822, 23.80981, 0.39673, -49.93300, -23.47150, 21.97650,
17358, -1408.00000, -841.00000, 1207.00000, 18.17169, 26.19019, -0.21362, -49.93300, -23.47150, 21.97650,
17366, -1450.00000, -790.00000, 1217.00000, 21.16241, 26.55640, -4.85229, -49.93300, -23.47150, 21.97650,
17376, -1534.00000, -690.00000, 1193.00000, 20.12482, 18.62183, -18.52417, -49.93300, -23.47150, 21.97650,
17381, -1534.00000, -666.00000, 1182.00000, 17.68341, 10.50415, -25.54321, -49.93300, -23.47150, 21.97650,
17391, -1496.00000, -651.00000, 1175.00000, 14.26544, 1.22681, -31.58569, -49.93300, -23.47150, 21.97650,
17397, -1466.00000, -650.00000, 1176.00000, 11.76300, -2.98462, -33.72192, -47.24200, -22.87350, 21.07950,
17402, -1436.00000, -661.00000, 1178.00000, 9.07745, -6.03638, -35.24780, -47.24200, -22.87350, 21.07950,
17411, -1410.00000, -698.00000, 1193.00000, 6.39191, -8.84399, -37.01782, -47.24200, -22.87350, 21.07950,
17442, -1652.00000, -928.00000, 1282.00000, 12.80060, -32.15942, -4.30298, -50.23200, -20.18250, 20.93000,
17524, -1510.00000, -930.00000, 1274.00000, 9.62677, -33.31909, -3.69263, -50.23200, -20.18250, 20.93000,
17564, -1438.00000, -924.00000, 1334.00000, 12.61749, -14.45923, -4.60815, -50.23200, -20.18250, 20.93000,
17596, -1349.00000, -843.00000, 1310.00000, 10.42023, -8.23364, -9.91821, -50.23200, -20.18250, 20.93000,
17612, -1318.00000, -793.00000, 1288.00000, 6.69708, -6.15845, -15.22827, -50.23200, -20.18250, 20.93000,
17642, -1291.00000, -894.00000, 1335.00000, 4.62189, -1.21460, -19.68384, -50.23200, -20.18250, 20.93000,
17672, -1299.00000, -928.00000, 1401.00000, 13.22784, -0.72632, -22.55249, -50.23200, -20.18250, 20.93000,
17693, -1349.00000, -996.00000, 1368.00000, 17.37823, -9.57642, -31.82983, -56.66050, -21.07950, 23.47150,
17778, -1335.00000, -1083.00000, 1386.00000, 31.53839, -16.83960, -23.04077, -56.66050, -21.07950, 23.47150,
17791, -1272.00000, -1012.00000, 1384.00000, 37.58087, -16.77856, -25.78735, -53.67050, -19.88350, 23.17250,
17822, -1188.00000, -771.00000, 1386.00000, 28.85284, -9.51538, -23.59009, -53.67050, -19.88350, 23.17250,
17829, -1163.00000, -791.00000, 1383.00000, 24.94659, -7.37915, -22.85767, -53.67050, -19.88350, 23.17250,
17868, -1232.00000, -871.00000, 1443.00000, 22.99347, -8.90503, -33.35571, -52.47450, -19.73400, 22.72400,
17884, -1214.00000, -836.00000, 1455.00000, 23.54279, -14.52026, -35.73608, -52.47450, -19.73400, 22.72400,
17921, -1107.00000, -876.00000, 1460.00000, 21.34552, -14.21509, -27.74048, -54.56750, -18.98650, 23.02300,
17950, -1295.00000, -1193.00000, 1530.00000, 60.10284, -43.20679, -31.89087, -51.87650, -17.64100, 21.82700,
18001, -1209.00000, -1117.00000, 1513.00000, 64.25323, -45.15991, -25.29907, -51.87650, -17.64100, 21.82700,
18031, -1179.00000, -1032.00000, 1582.00000, 57.78351, -38.87329, -0.09155, -51.87650, -17.64100, 21.82700,
18055, -1074.00000, -934.00000, 1561.00000, 54.85382, -41.07056, 10.04028, -57.70700, -15.39850, 23.92000,
18094, -1059.00000, -745.00000, 1498.00000, 48.93341, -50.28687, 0.88501, -57.85650, -15.24900, 22.72400,
18101, -1016.00000, -696.00000, 1504.00000, 47.16339, -52.60620, 0.51880, -57.85650, -15.24900, 22.72400,
18133, -767.00000, -599.00000, 1638.00000, 23.23761, -35.27222, 5.70679, -57.85650, -15.24900, 22.72400,
18140, -777.00000, -610.00000, 1667.00000, 17.19513, -26.48315, 6.92749, -62.34150, -11.36200, 23.47150,
18174, -899.00000, -652.00000, 1749.00000, -0.81024, -11.77368, 10.40649, -62.34150, -11.36200, 23.47150,
18204, -851.00000, -733.00000, 1926.00000, -7.27997, -9.33228, 0.88501, -62.34150, -11.36200, 23.47150,
18239, -829.00000, -711.00000, 1915.00000, -7.15790, -6.34155, 0.33569, -62.34150, -11.36200, 23.47150,
18248, -804.00000, -709.00000, 1898.00000, -7.27997, -1.64185, 0.76294, -62.34150, -11.36200, 23.47150,
18254, -806.00000, -713.00000, 1877.00000, -7.95135, 0.92163, 0.03052, -62.34150, -11.36200, 23.47150,
18266, -850.00000, -797.00000, 1868.00000, -6.42548, 5.31616, 2.89917, -62.34150, -11.36200, 23.47150,
18273, -892.00000, -816.00000, 1864.00000, -4.77753, 7.20825, 3.93677, -62.34150, -11.36200, 23.47150,
18313, -902.00000, -755.00000, 1766.00000, 5.29327, -0.05493, 12.42065, -62.34150, -11.36200, 23.47150,
18320, -870.00000, -727.00000, 1767.00000, 4.86603, 2.14233, 11.07788, -62.34150, -11.36200, 23.47150,
18349, -899.00000, -669.00000, 1723.00000, -0.56610, 9.83276, 8.33130, -59.80000, -12.40850, 22.12600,
18364, -904.00000, -660.00000, 1695.00000, -3.06854, 10.01587, 7.47681, -59.80000, -12.40850, 22.12600,
18395, -896.00000, -655.00000, 1698.00000, -5.75409, 9.46655, 2.34985, -57.55750, -15.99650, 22.72400,
18403, -899.00000, -659.00000, 1708.00000, -6.73065, 9.83276, 1.37329, -57.55750, -15.99650, 22.72400,
18410, -897.00000, -663.00000, 1716.00000, -7.52411, 10.32104, 1.00708, -57.55750, -15.99650, 22.72400,
18419, -891.00000, -669.00000, 1719.00000, -8.68378, 11.78589, 0.51880, -57.55750, -15.99650, 22.72400,
18424, -890.00000, -674.00000, 1721.00000, -9.53827, 12.88452, 0.03052, -57.55750, -15.99650, 22.72400,
18433, -890.00000, -687.00000, 1723.00000, -11.12518, 14.83765, -0.88501, -62.49100, -13.00650, 24.06950,
18439, -902.00000, -700.00000, 1726.00000, -12.34589, 16.30249, -1.43433, -62.49100, -13.00650, 24.06950,
18448, -918.00000, -708.00000, 1730.00000, -13.87177, 18.25562, -1.98364, -62.49100, -13.00650, 24.06950,
18457, -1014.00000, -815.00000, 1736.00000, -13.32245, 19.29321, -2.83813, -62.49100, -13.00650, 24.06950,
18483, -1045.00000, -843.00000, 1726.00000, -10.14862, 16.72974, -3.32642, -60.09900, -11.51150, 24.36850,
18491, -1074.00000, -857.00000, 1714.00000, -6.12030, 12.76245, -3.69263, -60.09900, -11.51150, 24.36850,
18498, -1081.00000, -856.00000, 1697.00000, -2.70233, 8.97827, -3.93677, -60.09900, -11.51150, 24.36850,
18506, -1080.00000, -847.00000, 1676.00000, 0.22736, 5.07202, -3.93677, -60.09900, -11.51150, 24.36850,
18546, -1001.00000, -750.00000, 1671.00000, -1.17645, 5.13306, 1.73950, -56.95950, -15.09950, 22.42500,
18555, -1010.00000, -723.00000, 1671.00000, -4.04510, 5.80444, 2.77710, -56.95950, -15.09950, 22.42500,
18561, -1002.00000, -711.00000, 1682.00000, -7.03583, 6.65894, 4.54712, -56.95950, -15.09950, 22.42500,
18570, -966.00000, -706.00000, 1684.00000, -10.69794, 8.06274, 7.04956, -56.95950, -15.09950, 22.42500,
18577, -956.00000, -698.00000, 1687.00000, -13.68866, 9.03931, 7.29370, -56.95950, -15.09950, 22.42500,
18589, -952.00000, -712.00000, 1746.00000, -14.84833, 6.23169, 2.47192, -60.09900, -15.24900, 23.32200,
18596, -920.00000, -700.00000, 1765.00000, -13.62762, 4.03442, -1.98364, -60.09900, -15.24900, 23.32200,
18603, -892.00000, -708.00000, 1740.00000, -11.30829, 2.63062, -7.29370, -60.09900, -15.24900, 23.32200,
18611, -841.00000, -729.00000, 1751.00000, -7.15790, 3.36304, -11.19995, -60.09900, -15.24900, 23.32200,
18618, -698.00000, -802.00000, 1690.00000, -3.00751, 6.65894, -15.53345, -60.09900, -15.24900, 23.32200,
18629, -744.00000, -846.00000, 1687.00000, 4.74396, 15.63110, -10.16235, -62.49100, -13.00650, 24.06950,
18667, -1201.00000, -907.00000, 1653.00000, 24.21417, 20.81909, 16.87622, -62.49100, -13.00650, 24.06950,
18676, -1230.00000, -827.00000, 1637.00000, 25.49591, 15.44800, 17.97485, -62.49100, -13.00650, 24.06950,
18682, -1238.00000, -777.00000, 1640.00000, 24.27521, 10.80933, 17.60864, -60.54750, -13.15600, 24.66750,
18691, -1220.00000, -734.00000, 1648.00000, 21.22345, 4.70581, 16.57104, -60.54750, -13.15600, 24.66750,
18700, -1193.00000, -680.00000, 1642.00000, 16.88995, -0.36011, 13.64136, -60.54750, -13.15600, 24.66750,
18707, -1020.00000, -667.00000, 1607.00000, 0.47150, -3.28979, -1.37329, -60.54750, -13.15600, 24.66750,
18735, -1017.00000, -658.00000, 1614.00000, -4.22821, -1.58081, -4.60815, -61.59400, -11.36200, 25.71400,
18742, -1010.00000, -655.00000, 1619.00000, -8.56171, 0.00610, -6.31714, -61.59400, -11.36200, 25.71400,
18754, -990.00000, -669.00000, 1631.00000, -14.78729, 4.27856, -6.68335, -61.59400, -11.36200, 25.71400,
18760, -971.00000, -673.00000, 1617.00000, -17.10663, 7.63550, -5.58472, -61.59400, -11.36200, 25.71400,
18769, -996.00000, -718.00000, 1650.00000, -18.57147, 10.99243, -4.60815, -61.59400, -11.36200, 25.71400,
18775, -1020.00000, -730.00000, 1659.00000, -18.51044, 11.35864, -4.85229, -61.59400, -11.36200, 25.71400,
18784, -1038.00000, -748.00000, 1659.00000, -17.28973, 9.28345, -5.21851, -59.05250, -16.59450, 22.87350,
18793, -1039.00000, -769.00000, 1661.00000, -15.09247, 6.59790, -5.70679, -59.05250, -16.59450, 22.87350,
18800, -1044.00000, -771.00000, 1655.00000, -13.26141, 4.94995, -6.13403, -59.05250, -16.59450, 22.87350,
18808, -1052.00000, -775.00000, 1643.00000, -11.24725, 3.30200, -6.19507, -59.05250, -16.59450, 22.87350,
18840, -956.00000, -772.00000, 1606.00000, -8.01239, -0.84839, -0.70190, -59.05250, -16.59450, 22.87350,
18847, -948.00000, -734.00000, 1585.00000, -9.17206, 1.16577, -0.64087, -59.05250, -16.59450, 22.87350,
18856, -960.00000, -706.00000, 1567.00000, -12.59003, 3.36304, -1.25122, -59.05250, -16.59450, 22.87350,
18865, -972.00000, -690.00000, 1553.00000, -16.67938, 5.19409, -1.98364, -59.05250, -16.59450, 22.87350,
18871, -975.00000, -707.00000, 1542.00000, -18.99872, 5.92651, -3.26538, -59.05250, -16.59450, 22.87350,
18880, -995.00000, -753.00000, 1555.00000, -21.07391, 4.70581, -4.85229, -59.05250, -16.59450, 22.87350,
18886, -1009.00000, -796.00000, 1566.00000, -21.80634, 3.66821, -5.64575, -59.05250, -16.59450, 22.87350,
18896, -1065.00000, -852.00000, 1592.00000, -21.92841, 1.65405, -7.53784, -59.05250, -16.59450, 22.87350,
18904, -1055.00000, -876.00000, 1627.00000, -21.50116, 0.79956, -8.81958, -59.05250, -16.59450, 22.87350,
18911, -1088.00000, -906.00000, 1635.00000, -20.76874, 0.06714, -10.34546, -59.05250, -16.59450, 22.87350,
18919, -1076.00000, -895.00000, 1658.00000, -20.76874, -1.82495, -13.94653, -59.05250, -16.59450, 22.87350,
18926, -1014.00000, -930.00000, 1657.00000, -19.30389, -1.33667, -14.06860, -59.05250, -16.59450, 22.87350,
18936, -990.00000, -935.00000, 1676.00000, -16.61835, 0.61646, -15.10620, -59.05250, -16.59450, 22.87350,
18942, -996.00000, -947.00000, 1691.00000, -14.84833, 1.34888, -15.83862, -59.05250, -16.59450, 22.87350,
18951, -1025.00000, -956.00000, 1714.00000, -11.49139, 1.65405, -16.08276, -59.05250, -16.59450, 22.87350,
18957, -1076.00000, -947.00000, 1765.00000, -1.90887, -1.51978, -13.82446, -59.50100, -17.34200, 24.96650,
18986, -1079.00000, -932.00000, 1757.00000, 1.69220, -3.04565, -14.06860, -59.50100, -17.34200, 24.96650,
18993, -1084.00000, -912.00000, 1756.00000, 3.58429, -3.53394, -13.70239, -59.50100, -17.34200, 24.96650,
19001, -1075.00000, -906.00000, 1757.00000, 4.62189, -3.65601, -13.45825, -59.50100, -17.34200, 24.96650,
19008, -1070.00000, -905.00000, 1735.00000, 5.72052, -2.80151, -12.78687, -59.50100, -17.34200, 24.96650,
19015, -1104.00000, -887.00000, 1704.00000, 6.69708, -2.92358, -11.99341, -59.50100, -17.34200, 24.96650,
19026, -1124.00000, -866.00000, 1636.00000, 7.00226, -4.26636, -9.18579, -59.65050, -17.94000, 23.32200,
19032, -1115.00000, -862.00000, 1596.00000, 6.26984, -6.46362, -8.14819, -59.65050, -17.94000, 23.32200,
19041, -1073.00000, -864.00000, 1569.00000, 4.37775, -9.39331, -6.31714, -59.65050, -17.94000, 23.32200,
19047, -1022.00000, -889.00000, 1571.00000, 3.46222, -8.35571, -3.87573, -59.65050, -17.94000, 23.32200,
19055, -987.00000, -900.00000, 1613.00000, 1.87531, -4.57153, -0.64087, -59.65050, -17.94000, 23.32200,
19064, -1027.00000, -949.00000, 1571.00000, 1.99738, -0.36011, 1.49536, -59.65050, -17.94000, 23.32200,
19072, -1063.00000, -977.00000, 1534.00000, 6.39191, -1.64185, 1.92261, -59.65050, -17.94000, 23.32200,
19079, -1105.00000, -966.00000, 1542.00000, 11.88507, -4.57153, 1.73950, -59.65050, -17.49150, 23.77050,
19087, -1119.00000, -947.00000, 1545.00000, 14.69269, -8.35571, 2.04468, -59.65050, -17.49150, 23.77050,
19094, -1148.00000, -915.00000, 1531.00000, 16.15753, -12.81128, 2.34985, -59.65050, -17.49150, 23.77050,
19103, -1164.00000, -923.00000, 1517.00000, 15.73029, -20.74585, 2.77710, -59.65050, -17.49150, 23.77050,
19112, -1083.00000, -991.00000, 1538.00000, 17.68341, -23.85864, 5.21851, -59.65050, -17.49150, 23.77050,
19118, -1030.00000, -1036.00000, 1565.00000, 20.55206, -23.30933, 8.27026, -59.65050, -17.49150, 23.77050,
19130, -971.00000, -1020.00000, 1644.00000, 25.43488, -18.97583, 17.18140, -61.29500, -16.59450, 24.96650,
19136, -953.00000, -959.00000, 1626.00000, 26.96075, -16.96167, 19.62280, -61.29500, -16.59450, 24.96650,
19147, -917.00000, -886.00000, 1579.00000, 28.91388, -14.64233, 17.73071, -61.29500, -16.59450, 24.96650,
19154, -916.00000, -883.00000, 1574.00000, 31.11115, -12.13989, 15.22827, -61.29500, -16.59450, 24.96650,
19161, -935.00000, -882.00000, 1587.00000, 32.94220, -10.36987, 15.16724, -61.29500, -16.59450, 24.96650,
19169, -984.00000, -850.00000, 1596.00000, 34.22394, -9.69849, 16.14380, -61.29500, -16.59450, 24.96650,
19178, -1026.00000, -787.00000, 1580.00000, 33.06427, -11.46851, 17.18140, -61.89300, -13.00650, 25.86350,
19186, -1032.00000, -748.00000, 1547.00000, 29.64630, -14.64233, 17.79175, -61.89300, -13.00650, 25.86350,
19193, -978.00000, -702.00000, 1548.00000, 26.83868, -16.59546, 18.03589, -61.89300, -13.00650, 25.86350,
19201, -854.00000, -590.00000, 1534.00000, 18.17169, -13.72681, 18.82935, -61.89300, -13.00650, 25.86350,
19208, -981.00000, -682.00000, 1645.00000, 3.82843, -7.68433, 13.94653, -61.14550, -13.45500, 26.16250,
19237, -992.00000, -725.00000, 1733.00000, 4.31671, -9.57642, 15.22827, -61.14550, -13.45500, 26.16250,
19245, -998.00000, -747.00000, 1783.00000, 6.20880, -12.01782, 15.47241, -61.14550, -13.45500, 26.16250,
19252, -984.00000, -786.00000, 1839.00000, 9.26056, -15.25269, 14.80103, -61.14550, -13.45500, 26.16250,
19259, -933.00000, -827.00000, 1854.00000, 14.44855, -17.69409, 13.64136, -61.14550, -13.45500, 26.16250,
19266, -892.00000, -853.00000, 1864.00000, 20.61310, -17.87720, 13.15308, -61.14550, -13.45500, 26.16250,
19282, -912.00000, -800.00000, 1840.00000, 33.97980, -16.65649, 13.45825, -61.59400, -14.65100, 24.96650,
19291, -941.00000, -726.00000, 1796.00000, 38.19122, -18.48755, 13.33618, -61.59400, -14.65100, 24.96650,
19298, -946.00000, -669.00000, 1756.00000, 40.69366, -21.66138, 12.60376, -61.59400, -14.65100, 24.96650,
19307, -925.00000, -660.00000, 1735.00000, 42.40265, -27.45972, 9.06372, -61.59400, -14.65100, 24.96650,
19315, -895.00000, -593.00000, 1717.00000, 41.67023, -29.96216, 4.54712, -61.59400, -14.65100, 24.96650,
19326, -957.00000, -449.00000, 1711.00000, 32.82013, -26.54419, 6.98853, -62.93950, -12.70750, 25.56450,
19333, -1015.00000, -351.00000, 1712.00000, 22.44415, -25.01831, 14.98413, -62.93950, -12.70750, 25.56450,
19340, -1032.00000, -315.00000, 1726.00000, 9.87091, -24.89624, 24.62769, -62.93950, -12.70750, 25.56450,
19348, -986.00000, -347.00000, 1734.00000, -4.47235, -24.40796, 38.60474, -62.93950, -12.70750, 25.56450,
19355, -939.00000, -380.00000, 1739.00000, -16.25214, -22.08862, 50.44556, -62.93950, -12.70750, 25.56450,
19365, -908.00000, -481.00000, 1752.00000, -28.94745, -17.02271, 63.69019, -62.93950, -12.70750, 25.56450,
19371, -907.00000, -554.00000, 1754.00000, -32.12128, -15.61890, 67.10815, -62.49100, -12.70750, 25.86350,
19379, -922.00000, -675.00000, 1756.00000, -31.93817, -16.04614, 67.10815, -62.49100, -12.70750, 25.86350,
19385, -958.00000, -722.00000, 1772.00000, -29.13055, -18.12134, 62.04224, -62.49100, -12.70750, 25.86350,
19395, -1023.00000, -729.00000, 1792.00000, -24.12567, -28.07007, 46.23413, -62.49100, -12.70750, 25.86350,
19402, -1053.00000, -716.00000, 1801.00000, -21.50116, -37.40845, 34.27124, -62.49100, -12.70750, 25.86350,
19409, -1058.00000, -701.00000, 1795.00000, -19.12079, -46.31958, 24.44458, -62.49100, -12.70750, 25.86350,
19417, -1032.00000, -672.00000, 1797.00000, -17.04559, -53.21655, 18.46313, -62.49100, -12.70750, 25.86350,
19424, -993.00000, -636.00000, 1811.00000, -15.82489, -57.61108, 16.20483, -67.87300, -12.85700, 24.66750,
19434, -962.00000, -606.00000, 1814.00000, -16.92352, -59.99146, 18.46313, -67.87300, -12.85700, 24.66750,
19440, -993.00000, -628.00000, 1792.00000, -18.14423, -62.06665, 22.06421, -67.87300, -12.85700, 24.66750,
19448, -1001.00000, -628.00000, 1775.00000, -19.60907, -67.62085, 31.09741, -67.87300, -12.85700, 24.66750,
19454, -1006.00000, -588.00000, 1771.00000, -21.25702, -70.91675, 37.20093, -67.87300, -12.85700, 24.66750,
19463, -807.00000, -434.00000, 1663.00000, -46.15936, -87.64038, 55.45044, -67.87300, -12.85700, 24.66750,
19494, -649.00000, -443.00000, 1639.00000, -55.43671, -85.68726, 53.80249, -67.87300, -12.85700, 24.66750,
19500, -584.00000, -456.00000, 1649.00000, -60.80780, -82.20825, 51.48315, -67.87300, -12.85700, 24.66750,
19508, -494.00000, -491.00000, 1694.00000, -67.70477, -73.84644, 48.12622, -67.87300, -12.85700, 24.66750,
19514, -456.00000, -542.00000, 1719.00000, -71.97723, -66.09497, 45.98999, -67.87300, -12.85700, 24.66750,
19523, -439.00000, -652.00000, 1733.00000, -76.06659, -54.92554, 42.38892, -67.87300, -12.85700, 24.66750,
19532, -413.00000, -959.00000, 1755.00000, -75.51727, -45.03784, 38.05542, -67.87300, -12.85700, 24.66750,
19539, -358.00000, -1221.00000, 1826.00000, -66.11786, -33.80737, 34.82056, -67.87300, -12.85700, 24.66750,
19546, -393.00000, -1186.00000, 1878.00000, -52.56805, -20.86792, 29.63257, -67.87300, -12.85700, 24.66750,
19553, -401.00000, -1122.00000, 1722.00000, -39.68964, -10.06470, 23.83423, -67.87300, -12.85700, 24.66750,
19563, -618.00000, -826.00000, 1840.00000, -25.46844, -0.66528, 22.18628, -67.87300, -12.85700, 24.66750,
19569, -710.00000, -745.00000, 1871.00000, -27.60468, 1.89819, 18.52417, -67.87300, -12.85700, 24.66750,
19578, -822.00000, -771.00000, 1888.00000, -32.24335, 0.00610, 15.04517, -67.87300, -12.85700, 24.66750,
19584, -841.00000, -827.00000, 1891.00000, -32.24335, -5.54810, 16.02173, -67.87300, -12.85700, 24.66750,
19592, -809.00000, -882.00000, 1917.00000, -30.47333, -13.78784, 18.21899, -67.87300, -12.85700, 24.66750,
19601, -761.00000, -911.00000, 1939.00000, -29.37469, -21.47827, 21.33179, -67.87300, -12.85700, 24.66750,
19608, -714.00000, -904.00000, 1937.00000, -28.21503, -23.91968, 22.85767, -67.87300, -12.85700, 24.66750,
19615, -682.00000, -910.00000, 1920.00000, -26.99432, -24.22485, 22.67456, -67.87300, -12.85700, 24.66750,
19623, -655.00000, -907.00000, 1917.00000, -26.68915, -23.73657, 20.29419, -70.71350, -21.07950, 23.17250,
19630, -630.00000, -903.00000, 1922.00000, -26.44501, -22.57690, 16.99829, -70.71350, -21.07950, 23.17250,
19638, -600.00000, -898.00000, 1936.00000, -25.77362, -20.50171, 12.35962, -70.71350, -21.07950, 23.17250,
19647, -576.00000, -914.00000, 1948.00000, -23.45428, -17.38892, 6.74438, -70.71350, -21.07950, 23.17250,
19653, -576.00000, -952.00000, 1950.00000, -20.76874, -15.67993, 2.59399, -70.71350, -21.07950, 23.17250,
19661, -592.00000, -1014.00000, 1955.00000, -14.97040, -14.76440, -3.32642, -70.71350, -21.07950, 23.17250,
19667, -604.00000, -1064.00000, 1961.00000, -8.50067, -15.06958, -7.65991, -70.41450, -21.82700, 22.42500,
19678, -646.00000, -1114.00000, 1956.00000, 4.37775, -15.25269, -12.05444, -70.41450, -21.82700, 22.42500,
19685, -680.00000, -1067.00000, 1941.00000, 11.45782, -15.74097, -12.29858, -70.41450, -21.82700, 22.42500,
19692, -701.00000, -997.00000, 1915.00000, 16.76788, -16.22925, -12.23755, -70.41450, -21.82700, 22.42500,
19699, -710.00000, -925.00000, 1877.00000, 20.73517, -16.35132, -12.84790, -70.41450, -21.82700, 22.42500,
19708, -726.00000, -875.00000, 1839.00000, 21.95587, -16.47339, -13.39722, -70.41450, -21.82700, 22.42500,
19716, -847.00000, -868.00000, 1738.00000, 15.30304, -24.59106, -16.75415, -73.55400, -18.08950, 22.87350,
19742, -862.00000, -865.00000, 1758.00000, 14.14337, -29.71802, -16.08276, -73.55400, -18.08950, 22.87350,
19751, -831.00000, -835.00000, 1813.00000, 12.43439, -36.43188, -12.96997, -73.55400, -18.08950, 22.87350,
19757, -826.00000, -768.00000, 1703.00000, 11.03058, -40.09399, -10.04028, -73.55400, -18.08950, 22.87350,
19767, -767.00000, -735.00000, 1740.00000, 1.02081, -67.31567, -15.71655, -74.15200, -20.18250, 20.48150,
19774, -639.00000, -743.00000, 1783.00000, -0.32196, -69.45190, -20.11108, -74.15200, -20.18250, 20.48150,
19781, -521.00000, -786.00000, 1780.00000, -3.49579, -64.93530, -19.13452, -74.15200, -20.18250, 20.48150,
19788, -226.00000, -907.00000, 1584.00000, -0.32196, -45.95337, -12.11548, -74.15200, -20.18250, 20.48150,
19796, -243.00000, -922.00000, 1698.00000, 3.21808, -27.15454, -4.66919, -74.15200, -20.18250, 20.48150,
19806, -380.00000, -900.00000, 1816.00000, 2.18048, -7.37915, -1.31226, -74.15200, -20.18250, 20.48150,
19812, -442.00000, -870.00000, 1857.00000, 3.40118, -1.27563, -0.82397, -74.15200, -20.18250, 20.48150,
19820, -573.00000, -848.00000, 1878.00000, 5.29327, 3.30200, 3.08228, -72.50750, -17.64100, 21.07950,
19826, -602.00000, -852.00000, 1887.00000, 6.20880, 2.32544, 8.39233, -72.50750, -17.64100, 21.07950,
19834, -567.00000, -865.00000, 1888.00000, 7.24640, 0.00610, 13.09204, -72.50750, -17.64100, 21.07950,
19843, -525.00000, -860.00000, 1888.00000, 8.95538, -2.61841, 14.67896, -72.50750, -17.64100, 21.07950,
19851, -503.00000, -883.00000, 1880.00000, 11.82404, -3.28979, 13.51929, -72.50750, -17.64100, 21.07950,
19858, -487.00000, -897.00000, 1872.00000, 14.69269, -2.74048, 12.35962, -72.50750, -17.64100, 21.07950,
19865, -488.00000, -929.00000, 1845.00000, 17.37823, -1.88599, 12.48169, -76.09550, -19.13600, 23.47150,
19872, -557.00000, -868.00000, 1811.00000, 19.08722, -1.09253, 15.10620, -76.09550, -19.13600, 23.47150,
19878, -653.00000, -778.00000, 1788.00000, 17.62238, -1.51978, 19.31763, -76.09550, -19.13600, 23.47150,
19885, -707.00000, -669.00000, 1785.00000, 14.57062, -3.22876, 24.93286, -76.09550, -19.13600, 23.47150,
19892, -805.00000, -488.00000, 1799.00000, 5.65948, -10.24780, 32.07397, -76.09550, -19.13600, 23.47150,
19901, -841.00000, -408.00000, 1865.00000, -12.40692, -24.83521, 39.21509, -76.09550, -19.13600, 23.47150,
19908, -817.00000, -446.00000, 2053.00000, -24.43085, -37.28638, 46.84448, -76.09550, -19.13600, 23.47150,
19914, -728.00000, -547.00000, 2119.00000, -37.24823, -52.72827, 51.97144, -74.00250, -18.83700, 20.63100,
19919, -423.00000, -788.00000, 2104.00000, -44.75555, -60.78491, 50.07935, -74.00250, -18.83700, 20.63100,
19948, -451.00000, -974.00000, 1974.00000, -15.27557, -43.87817, 19.07349, -74.00250, -18.83700, 20.63100,
19959, -487.00000, -957.00000, 1874.00000, -6.54755, -47.78442, 8.45337, -74.00250, -18.83700, 20.63100,
19979, -210.00000, -799.00000, 1687.00000, -19.48700, -39.05640, -15.83862, -77.74000, -21.67750, 17.64100,
20055, -202.00000, -878.00000, 1776.00000, -22.17255, -32.76978, -11.87134, -77.74000, -21.67750, 17.64100,
20091, -289.00000, -940.00000, 1970.00000, -16.55731, -9.02710, 17.73071, -80.28150, -20.48150, 18.68750,
20162, -293.00000, -1034.00000, 1952.00000, -1.11542, -16.10718, 5.09644, -80.28150, -20.48150, 18.68750,
20191, -250.00000, -936.00000, 1925.00000, 8.83331, -11.28540, 4.91333, -80.28150, -20.48150, 18.68750,
20222, -232.00000, -818.00000, 1803.00000, -5.69305, -6.52466, 19.13452, -79.08549, -21.82700, 19.28550,
20260, -181.00000, -928.00000, 1829.00000, 1.99738, -25.56763, 0.70190, -79.98250, -23.47150, 17.04300,
20311, -179.00000, -906.00000, 1817.00000, 0.41046, -19.95239, 1.25122, -82.07550, -22.42500, 19.88350,
20347, -244.00000, -970.00000, 1957.00000, -21.31805, 1.71509, 44.15894, -82.07550, -22.42500, 19.88350,
20354, -203.00000, -1009.00000, 2011.00000, -20.34149, 3.66821, 41.59546, -82.07550, -22.42500, 19.88350,
20394, -166.00000, -983.00000, 1968.00000, -15.03143, -13.54370, 18.28003, -81.32800, -22.72400, 16.59450,
20424, -202.00000, -1028.00000, 1871.00000, -12.65106, -20.74585, 8.94165, -78.63700, -26.31200, 14.35200,
20445, -205.00000, -941.00000, 1895.00000, -11.06415, -28.31421, 9.55200, -78.63700, -26.31200, 14.35200,
20475, -212.00000, -886.00000, 1953.00000, -23.02704, -35.21118, 33.11157, -80.87950, -24.06950, 16.74400,
20486, -288.00000, -1037.00000, 1912.00000, -25.28534, -38.93433, 34.63745, -80.87950, -24.06950, 16.74400,
20515, -182.00000, -736.00000, 1679.00000, -115.06805, -23.49243, 11.01685, -77.29150, -28.85350, 12.10950,
20542, -167.00000, -798.00000, 1671.00000, -133.62274, -16.59546, -0.39673, -77.29150, -28.85350, 12.10950,
20581, -150.00000, -1536.00000, 1782.00000, -154.67987, -32.28149, -96.40503, -79.83300, -31.54450, 10.46500,
20588, -96.00000, -1582.00000, 1709.00000, -145.09735, -38.26294, -98.84644, -79.83300, -31.54450, 10.46500,
20629, 112.00000, -1776.00000, 1247.00000, -26.99432, 0.18921, -81.87866, -81.92599, -30.34850, 6.42850,
20659, 151.00000, -1291.00000, 1460.00000, 14.26544, 2.02026, -28.04565, -82.97250, -29.60100, 6.42850,
20667, 183.00000, -1187.00000, 1531.00000, 6.69708, 6.59790, -7.65991, -82.97250, -29.60100, 6.42850,
20697, 71.00000, -1450.00000, 1672.00000, -4.41132, 15.81421, 27.19116, -82.97250, -29.60100, 6.42850,
20706, 74.00000, -1417.00000, 1748.00000, -1.84784, 16.79077, 27.13013, -87.90600, -29.90000, 10.16600,
20719, 214.00000, -1407.00000, 1668.00000, 4.19464, 14.53247, 16.69312, -87.90600, -29.90000, 10.16600,
20726, 179.00000, -1398.00000, 1630.00000, 3.46222, 9.46655, 8.27026, -87.90600, -29.90000, 10.16600,
20765, 76.00000, -1442.00000, 1500.00000, -26.01776, -13.23853, -21.02661, -87.90600, -29.90000, 10.16600,
20823, 90.00000, -1494.00000, 1552.00000, -26.50604, -12.01782, -13.70239, -87.90600, -29.90000, 10.16600,
20831, 88.00000, -1525.00000, 1613.00000, -25.89569, -11.16333, -7.17163, -87.90600, -29.90000, 10.16600,
20842, 110.00000, -1519.00000, 1573.00000, -24.24774, -11.71265, -2.65503, -87.90600, -29.90000, 10.16600,
20847, 124.00000, -1494.00000, 1524.00000, -23.94257, -13.23853, -3.08228, -87.90600, -29.90000, 10.16600,
20856, 136.00000, -1462.00000, 1455.00000, -23.63739, -16.10718, -4.85229, -87.90600, -29.90000, 10.16600,
20862, 132.00000, -1461.00000, 1422.00000, -23.75946, -18.79272, -7.59888, -87.90600, -29.90000, 10.16600,
20870, 143.00000, -1466.00000, 1427.00000, -25.59052, -21.96655, -12.11548, -87.90600, -29.90000, 10.16600,
20879, 140.00000, -1454.00000, 1403.00000, -26.56708, -24.22485, -14.19067, -87.90600, -29.90000, 10.16600,
20908, 179.00000, -1507.00000, 1399.00000, -39.14032, -21.11206, -4.54712, -83.72000, -32.59100, 4.78400,
20918, 177.00000, -1494.00000, 1389.00000, -44.57245, -20.07446, 2.65503, -83.72000, -32.59100, 4.78400,
20925, 207.00000, -1499.00000, 1403.00000, -47.13593, -20.74585, 10.52856, -83.72000, -32.59100, 4.78400,
20938, 286.00000, -1568.00000, 1422.00000, -47.07489, -21.11206, 17.91382, -83.72000, -32.59100, 4.78400,
20944, 323.00000, -1611.00000, 1439.00000, -44.63348, -21.41724, 17.24243, -83.72000, -32.59100, 4.78400,
20952, 352.00000, -1661.00000, 1445.00000, -39.26239, -22.14966, 12.17651, -87.75650, -30.04950, 5.08300,
20959, 340.00000, -1685.00000, 1433.00000, -33.21991, -23.18726, 4.54712, -87.75650, -30.04950, 5.08300,
20988, 228.00000, -1628.00000, 1304.00000, -17.47284, -17.14478, -0.45776, -87.75650, -30.04950, 5.08300,
21000, 212.00000, -1624.00000, 1313.00000, -16.49628, -9.88159, 6.07300, -87.75650, -30.04950, 5.08300,
21007, 188.00000, -1599.00000, 1323.00000, -16.67938, -6.28052, 10.52856, -87.00900, -31.84350, 3.58800,
21015, 193.00000, -1692.00000, 1313.00000, -10.02655, -12.44507, 9.97925, -84.76650, -33.78700, 1.94350,
21077, 197.00000, -1687.00000, 1298.00000, -5.50995, -12.93335, 6.86646, -84.76650, -33.78700, 1.94350,
21084, 199.00000, -1693.00000, 1289.00000, -2.58026, -11.22437, 6.74438, -84.76650, -33.78700, 1.94350,
21093, 190.00000, -1692.00000, 1288.00000, -0.87128, -8.41675, 7.96509, -84.76650, -33.78700, 1.94350,
21102, 191.00000, -1679.00000, 1298.00000, -0.50507, -6.64673, 8.81958, -86.71000, -33.78700, 3.58800,
21140, 145.00000, -1708.00000, 1332.00000, -2.15302, 6.84204, 35.43091, -86.71000, -33.78700, 3.58800,
21148, 141.00000, -1708.00000, 1322.00000, -2.09198, 11.72485, 45.92896, -86.71000, -33.78700, 3.58800,
21154, 139.00000, -1714.00000, 1315.00000, -1.72577, 15.08179, 52.21558, -84.31800, -35.88000, 3.88700,
21166, 156.00000, -1735.00000, 1333.00000, -2.88544, 19.84253, 61.79810, -84.31800, -35.88000, 3.88700,
21173, 162.00000, -1725.00000, 1348.00000, -4.16718, 20.39185, 63.14087, -84.31800, -35.88000, 3.88700,
21180, 170.00000, -1696.00000, 1345.00000, -5.02167, 18.86597, 60.45532, -84.31800, -35.88000, 3.88700,
21188, 163.00000, -1656.00000, 1331.00000, -5.75409, 14.59351, 53.19214, -84.31800, -35.88000, 3.88700,
21195, 171.00000, -1657.00000, 1308.00000, -6.79169, 8.97827, 44.83032, -84.31800, -35.88000, 3.88700,
21206, 143.00000, -1665.00000, 1301.00000, -9.47723, -0.36011, 30.36499, -83.72000, -34.08600, 1.49500,
21212, 82.00000, -1646.00000, 1320.00000, -9.47723, -3.41187, 23.95630, -83.72000, -34.08600, 1.49500,
21220, 10.00000, -1635.00000, 1306.00000, -8.68378, -5.12085, 18.58521, -83.72000, -34.08600, 1.49500,
21226, -1.00000, -1633.00000, 1313.00000, -7.89032, -6.40259, 15.83862, -83.72000, -34.08600, 1.49500,
21234, 5.00000, -1629.00000, 1264.00000, -6.30341, -7.07397, 12.66479, -83.72000, -34.08600, 1.49500,
21243, 30.00000, -1628.00000, 1250.00000, -4.65546, -8.41675, 9.42993, -83.72000, -34.08600, 1.49500,
21251, 48.00000, -1654.00000, 1240.00000, -3.61786, -7.98950, 8.88062, -84.46750, -36.02950, 2.99000,
21258, 53.00000, -1679.00000, 1242.00000, -2.94647, -7.31812, 8.81958, -84.46750, -36.02950, 2.99000,
21265, 21.00000, -1704.00000, 1266.00000, 10.60333, 2.50854, -0.39673, -84.46750, -36.02950, 2.99000,
21293, 25.00000, -1726.00000, 1309.00000, 18.17169, 6.53687, -3.93677, -84.46750, -36.02950, 2.99000,
21301, 22.00000, -1724.00000, 1302.00000, 25.86212, 9.03931, -9.49097, -84.61700, -35.43150, 2.84050,
21310, 18.00000, -1714.00000, 1288.00000, 31.66046, 8.79517, -16.99829, -84.61700, -35.43150, 2.84050,
21316, 32.00000, -1693.00000, 1348.00000, 35.13947, 10.62622, -18.95142, -84.61700, -35.43150, 2.84050,
21324, -19.00000, -1679.00000, 1333.00000, 38.49640, 13.12866, -15.22827, -84.61700, -35.43150, 2.84050,
21331, -18.00000, -1682.00000, 1343.00000, 42.03644, 16.72974, -9.91821, -84.61700, -35.43150, 2.84050,
21342, 1.00000, -1641.00000, 1361.00000, 49.90997, 31.56128, 6.13403, -84.61700, -35.43150, 2.84050,
21349, 23.00000, -1615.00000, 1355.00000, 53.26691, 45.53833, 19.43970, -83.72000, -35.28200, 4.33550,
21357, 44.00000, -1570.00000, 1341.00000, 53.63312, 60.24780, 33.90503, -83.72000, -35.28200, 4.33550,
21365, 14.00000, -1560.00000, 1316.00000, 52.04620, 72.14966, 45.25757, -83.72000, -35.28200, 4.33550,
21374, -66.00000, -1556.00000, 1306.00000, 46.49200, 81.12183, 56.30493, -83.72000, -35.28200, 4.33550,
21383, -150.00000, -1551.00000, 1311.00000, 40.02228, 78.86353, 59.05151, -83.72000, -35.28200, 4.33550,
21389, -196.00000, -1563.00000, 1313.00000, 36.36017, 71.60034, 56.36597, -83.72000, -35.28200, 4.33550,
21398, -312.00000, -1574.00000, 1346.00000, 32.88116, 54.99878, 48.00415, -83.72000, -35.28200, 4.33550,
21404, -289.00000, -1629.00000, 1387.00000, 29.40216, 36.01685, 37.68921, -83.72000, -35.28200, 4.33550,
21416, -207.00000, -1663.00000, 1500.00000, 26.28937, 12.70142, 25.48218, -83.72000, -35.28200, 4.33550,
21424, -137.00000, -1633.00000, 1499.00000, 25.12970, 4.64478, 21.75903, -83.72000, -35.28200, 4.33550,
21431, -75.00000, -1565.00000, 1471.00000, 23.90900, 0.92163, 20.17212, -83.72000, -35.28200, 4.33550,
21439, -27.00000, -1469.00000, 1424.00000, 21.71173, 0.31128, 21.08765, -83.72000, -35.28200, 4.33550,
21446, -40.00000, -1394.00000, 1398.00000, 18.29376, 2.32544, 27.55737, -83.72000, -35.28200, 4.33550,
21457, -128.00000, -1358.00000, 1371.00000, 10.42023, 7.14722, 42.02271, -83.72000, -35.28200, 4.33550,
21488, -407.00000, -1428.00000, 1346.00000, -10.94208, 5.56030, 73.15063, -83.72000, -35.28200, 4.33550,
21496, -412.00000, -1447.00000, 1351.00000, -11.85760, 4.70581, 78.94897, -83.72000, -35.28200, 4.33550,
21502, -405.00000, -1462.00000, 1369.00000, -11.24725, 5.13306, 83.22144, -83.72000, -35.28200, 4.33550,
21511, -351.00000, -1299.00000, 1231.00000, -10.27069, 6.29272, 88.34839, -83.72000, -35.28200, 4.33550,
21520, -116.00000, -1422.00000, 1271.00000, -23.27118, 0.12817, 92.62085, -83.72000, -35.28200, 4.33550,
21546, -309.00000, -1498.00000, 1291.00000, -24.91913, 1.16577, 88.65356, -76.84300, -39.76700, 6.87700,
21553, -471.00000, -1496.00000, 1461.00000, -15.58075, 0.73853, 77.42310, -76.84300, -39.76700, 6.87700,
21561, -532.00000, -1628.00000, 1447.00000, -0.19989, 5.80444, 66.00952, -76.84300, -39.76700, 6.87700,
21568, -485.00000, -1636.00000, 1477.00000, 11.27472, 5.68237, 58.74634, -76.84300, -39.76700, 6.87700,
21577, -392.00000, -1564.00000, 1484.00000, 7.67365, -5.24292, 53.92456, -76.84300, -39.76700, 6.87700,
21586, -387.00000, -1533.00000, 1410.00000, 2.72980, -13.42163, 50.07935, -76.84300, -39.76700, 6.87700,
21592, -430.00000, -1498.00000, 1349.00000, 5.41534, -15.43579, 43.12134, -76.84300, -39.76700, 6.87700,
21601, -596.00000, -1368.00000, 1142.00000, 9.87091, -22.76001, 25.60425, -76.39450, -39.16900, 7.02650,
21607, -604.00000, -1331.00000, 1161.00000, 12.12921, -33.86841, 11.62720, -76.39450, -39.16900, 7.02650,
21617, -399.00000, -1592.00000, 1441.00000, 7.42950, -45.28198, 10.95581, -76.39450, -39.16900, 7.02650,
21625, -342.00000, -1602.00000, 1551.00000, 3.34015, -35.94360, 22.61353, -76.39450, -39.16900, 7.02650,
21632, -367.00000, -1652.00000, 1511.00000, 2.60773, -21.53931, 39.21509, -76.39450, -39.16900, 7.02650,
21640, -376.00000, -1651.00000, 1518.00000, 4.80499, -9.08813, 54.77905, -76.39450, -39.16900, 7.02650,
21647, -286.00000, -1711.00000, 1553.00000, 4.31671, 3.36304, 65.15503, -77.88950, -37.82350, 7.62450,
21657, -242.00000, -1711.00000, 1571.00000, 3.58429, 19.17114, 68.75610, -77.88950, -37.82350, 7.62450,
21663, -326.00000, -1664.00000, 1518.00000, 3.82843, 26.19019, 67.16919, -77.88950, -37.82350, 7.62450,
21672, -458.00000, -1720.00000, 1476.00000, 5.29327, 26.55640, 59.17358, -77.88950, -37.82350, 7.62450,
21678, -503.00000, -1764.00000, 1453.00000, 6.81915, 22.95532, 48.30933, -77.88950, -37.82350, 7.62450,
21688, -592.00000, -1625.00000, 1422.00000, 11.21368, 9.83276, 18.89038, -77.88950, -37.82350, 7.62450,
21696, -610.00000, -1458.00000, 1451.00000, 11.27472, -7.25708, -1.00708, -75.64700, -39.61750, 6.27900,
21703, -489.00000, -1498.00000, 1491.00000, 9.62677, -19.70825, -13.21411, -75.64700, -39.61750, 6.27900,
21711, -407.00000, -1657.00000, 1452.00000, 13.28888, -19.89136, -26.21460, -75.64700, -39.61750, 6.27900,
21718, -443.00000, -1624.00000, 1403.00000, 23.11554, -17.20581, -46.23413, -75.64700, -39.61750, 6.27900,
21728, -491.00000, -1543.00000, 1339.00000, 34.71222, -20.07446, -72.23511, -75.64700, -39.61750, 6.27900,
21734, -456.00000, -1515.00000, 1302.00000, 38.37433, -19.64722, -84.13696, -75.64700, -39.61750, 6.27900,
21743, -341.00000, -1502.00000, 1286.00000, 42.89093, -8.96606, -93.10913, -76.69350, -37.67400, 7.77400,
21749, -294.00000, -1496.00000, 1291.00000, 45.08820, 2.32544, -93.84155, -76.69350, -37.67400, 7.77400,
21758, -296.00000, -1441.00000, 1352.00000, 45.75958, 19.23218, -85.47974, -76.69350, -37.67400, 7.77400,
21767, -329.00000, -1368.00000, 1441.00000, 38.37433, 21.42944, -69.91577, -76.69350, -37.67400, 7.77400,
21774, -330.00000, -1396.00000, 1512.00000, 16.46271, 15.44800, -21.33179, -79.08549, -38.57100, 9.26900,
21805, -347.00000, -1411.00000, 1491.00000, 16.27960, 14.53247, -15.47241, -79.08549, -38.57100, 9.26900,
21811, -360.00000, -1410.00000, 1473.00000, 16.34064, 14.59351, -12.48169, -79.08549, -38.57100, 9.26900,
21820, -389.00000, -1377.00000, 1453.00000, 14.38751, 16.11938, -5.76782, -79.08549, -38.57100, 9.26900,
21829, -426.00000, -1305.00000, 1453.00000, 10.42023, 20.33081, 7.90405, -79.08549, -38.57100, 9.26900,
21836, -367.00000, -1396.00000, 1440.00000, 9.62677, 27.04468, 16.38794, -79.08549, -38.57100, 9.26900,
21843, -390.00000, -1414.00000, 1476.00000, 10.72540, 33.45337, 19.80591, -76.69350, -38.87000, 8.07300,
21851, -386.00000, -1271.00000, 1497.00000, 10.72540, 36.38306, 22.97974, -76.69350, -38.87000, 8.07300,
21858, -315.00000, -1136.00000, 1476.00000, 2.42462, 42.36450, 34.21021, -76.69350, -38.87000, 8.07300,
21867, -393.00000, -1080.00000, 1436.00000, -10.14862, 42.97485, 43.91479, -76.69350, -38.87000, 8.07300,
21876, -370.00000, -1261.00000, 1366.00000, -11.73553, 45.29419, 44.15894, -76.69350, -38.87000, 8.07300,
