//--------- NEW START ---------//
// Drifter number: 1, Battery: 3.61
// IMU_update: 40 ms, GPS_update: 250 ms, Transciever_update: 8000 ms
// Accel_range: 16G, Gyro_range: 2000 dps
IMUtime, Ax, Ay, Az, Gx, Gy, Gz, Mx, My, Mz, P, T
8779, 1831.00000, -197.00000, 933.00000, 1.57013, 0.18921, -0.03052, -101.06200, 13.15600, -48819, 1829.00000, -194.00000, 932.00000, 1.57013, -0.05493, -0.03052, -102.70650, 14.20250, -8859, 1832.00000, -196.00000, 931.00000, 1.50909, 0.00610, 0.03052, -103.15500, 9.71750, -44.8899, 1835.00000, -195.00000, 927.00000, 1.44806, 0.06714, -0.03052, -103.15500, 9.71750, -448939, 1830.00000, -196.00000, 930.00000, 1.44806, 0.00610, 0.03052, -103.15500, 9.71750, -44.8979, 1831.00000, -198.00000, 928.00000, 1.44806, 0.12817, 0.03052, -102.70650, 12.25900, -469019, 1832.00000, -198.00000, 936.00000, 1.57013, -0.11597, -0.03052, -103.45399, 13.45500, -9081, 1832.00000, -199.00000, 927.00000, 1.32599, 0.12817, -0.03052, -97.47400, 13.15600, -499121, 1834.00000, -197.00000, 925.00000, 1.57013, -0.11597, -0.15259, -101.95900, 11.96000, -9161, 1832.00000, -193.00000, 929.00000, 1.44806, 0.12817, 0.03052, -102.70650, 14.20250, -469201, 1828.00000, -195.00000, 930.00000, 1.38702, 0.12817, 0.03052, -102.70650, 14.20250, -469241, 1830.00000, -197.00000, 929.00000, 1.44806, 0.00610, 0.03052, -102.70650, 14.20250, -469360, 1831.00000, -195.00000, 930.00000, 1.44806, 0.12817, 0.09155, -97.62350, 13.45500, -50.9400, 1831.00000, -194.00000, 931.00000, 1.38702, 0.12817, 0.09155, -101.80950, 12.85700, -469440, 1831.00000, -192.00000, 932.00000, 1.44806, -0.05493, 0.03052, -101.80950, 12.85700, -49480, 1834.00000, -195.00000, 930.00000, 1.38702, 0.06714, -0.03052, -101.36100, 12.70750, -49520, 1834.00000, -198.00000, 926.00000, 1.44806, 0.00610, -0.03052, -102.40750, 13.00650, -49581, 1832.00000, -197.00000, 924.00000, 1.38702, 0.18921, 0.03052, -102.40750, 13.00650, -479621, 1832.00000, -197.00000, 928.00000, 1.57013, 0.06714, 0.03052, -103.45399, 13.75400, -469661, 1832.00000, -194.00000, 930.00000, 1.44806, 0.12817, 0.09155, -102.25800, 13.15600, -469701, 1834.00000, -197.00000, 930.00000, 1.44806, 0.12817, 0.03052, -101.66000, 12.70750, -459741, 1832.00000, -191.00000, 928.00000, 1.44806, -0.05493, -0.09155, -102.40750, 13.00650, -9858, 1832.00000, -195.00000, 928.00000, 1.50909, 0.18921, 0.03052, -97.92250, 16.14600, -51.9898, 1833.00000, -198.00000, 930.00000, 1.38702, -0.05493, -0.03052, -97.92250, 16.14600, -59938, 1830.00000, -194.00000, 928.00000, 1.44806, 0.06714, 0.09155, -102.70650, 13.45500, -44.25200
8819, 1829.00000, -194.00000, 932.00000, 1.57013, -0.05493, -0.03052, -102.70650, 14.20250, -8859, 1832.00000, -196.00000, 931.00000, 1.50909, 0.00610, 0.03052, -103.15500, 9.71750, -44.8899, 1835.00000, -195.00000, 927.00000, 1.44806, 0.06714, -0.03052, -103.15500, 9.71750, -448939, 1830.00000, -196.00000, 930.00000, 1.44806, 0.00610, 0.03052, -103.15500, 9.71750, -44.8979, 1831.00000, -198.00000, 928.00000, 1.44806, 0.12817, 0.03052, -102.70650, 12.25900, -469019, 1832.00000, -198.00000, 936.00000, 1.57013, -0.11597, -0.03052, -103.45399, 13.45500, -9081, 1832.00000, -199.00000, 927.00000, 1.32599, 0.12817, -0.03052, -97.47400, 13.15600, -499121, 1834.00000, -197.00000, 925.00000, 1.57013, -0.11597, -0.15259, -101.95900, 11.96000, -9161, 1832.00000, -193.00000, 929.00000, 1.44806, 0.12817, 0.03052, -102.70650, 14.20250, -469201, 1828.00000, -195.00000, 930.00000, 1.38702, 0.12817, 0.03052, -102.70650, 14.20250, -469241, 1830.00000, -197.00000, 929.00000, 1.44806, 0.00610, 0.03052, -102.70650, 14.20250, -469360, 1831.00000, -195.00000, 930.00000, 1.44806, 0.12817, 0.09155, -97.62350, 13.45500, -50.9400, 1831.00000, -194.00000, 931.00000, 1.38702, 0.12817, 0.09155, -101.80950, 12.85700, -469440, 1831.00000, -192.00000, 932.00000, 1.44806, -0.05493, 0.03052, -101.80950, 12.85700, -49480, 1834.00000, -195.00000, 930.00000, 1.38702, 0.06714, -0.03052, -101.36100, 12.70750, -49520, 1834.00000, -198.00000, 926.00000, 1.44806, 0.00610, -0.03052, -102.40750, 13.00650, -49581, 1832.00000, -197.00000, 924.00000, 1.38702, 0.18921, 0.03052, -102.40750, 13.00650, -479621, 1832.00000, -197.00000, 928.00000, 1.57013, 0.06714, 0.03052, -103.45399, 13.75400, -469661, 1832.00000, -194.00000, 930.00000, 1.44806, 0.12817, 0.09155, -102.25800, 13.15600, -469701, 1834.00000, -197.00000, 930.00000, 1.44806, 0.12817, 0.03052, -101.66000, 12.70750, -459741, 1832.00000, -191.00000, 928.00000, 1.44806, -0.05493, -0.09155, -102.40750, 13.00650, -9858, 1832.00000, -195.00000, 928.00000, 1.50909, 0.18921, 0.03052, -97.92250, 16.14600, -51.9898, 1833.00000, -198.00000, 930.00000, 1.38702, -0.05493, -0.03052, -97.92250, 16.14600, -59938, 1830.00000, -194.00000, 928.00000, 1.44806, 0.06714, 0.09155, -102.70650, 13.45500, -44.25200
8859, 1832.00000, -196.00000, 931.00000, 1.50909, 0.00610, 0.03052, -103.15500, 9.71750, -44.8899, 1835.00000, -195.00000, 927.00000, 1.44806, 0.06714, -0.03052, -103.15500, 9.71750, -448939, 1830.00000, -196.00000, 930.00000, 1.44806, 0.00610, 0.03052, -103.15500, 9.71750, -44.8979, 1831.00000, -198.00000, 928.00000, 1.44806, 0.12817, 0.03052, -102.70650, 12.25900, -469019, 1832.00000, -198.00000, 936.00000, 1.57013, -0.11597, -0.03052, -103.45399, 13.45500, -9081, 1832.00000, -199.00000, 927.00000, 1.32599, 0.12817, -0.03052, -97.47400, 13.15600, -499121, 1834.00000, -197.00000, 925.00000, 1.57013, -0.11597, -0.15259, -101.95900, 11.96000, -9161, 1832.00000, -193.00000, 929.00000, 1.44806, 0.12817, 0.03052, -102.70650, 14.20250, -469201, 1828.00000, -195.00000, 930.00000, 1.38702, 0.12817, 0.03052, -102.70650, 14.20250, -469241, 1830.00000, -197.00000, 929.00000, 1.44806, 0.00610, 0.03052, -102.70650, 14.20250, -469360, 1831.00000, -195.00000, 930.00000, 1.44806, 0.12817, 0.09155, -97.62350, 13.45500, -50.9400, 1831.00000, -194.00000, 931.00000, 1.38702, 0.12817, 0.09155, -101.80950, 12.85700, -469440, 1831.00000, -192.00000, 932.00000, 1.44806, -0.05493, 0.03052, -101.80950, 12.85700, -49480, 1834.00000, -195.00000, 930.00000, 1.38702, 0.06714, -0.03052, -101.36100, 12.70750, -49520, 1834.00000, -198.00000, 926.00000, 1.44806, 0.00610, -0.03052, -102.40750, 13.00650, -49581, 1832.00000, -197.00000, 924.00000, 1.38702, 0.18921, 0.03052, -102.40750, 13.00650, -479621, 1832.00000, -197.00000, 928.00000, 1.57013, 0.06714, 0.03052, -103.45399, 13.75400, -469661, 1832.00000, -194.00000, 930.00000, 1.44806, 0.12817, 0.09155, -102.25800, 13.15600, -469701, 1834.00000, -197.00000, 930.00000, 1.44806, 0.12817, 0.03052, -101.66000, 12.70750, -459741, 1832.00000, -191.00000, 928.00000, 1.44806, -0.05493, -0.09155, -102.40750, 13.00650, -9858, 1832.00000, -195.00000, 928.00000, 1.50909, 0.18921, 0.03052, -97.92250, 16.14600, -51.9898, 1833.00000, -198.00000, 930.00000, 1.38702, -0.05493, -0.03052, -97.92250, 16.14600, -59938, 1830.00000, -194.00000, 928.00000, 1.44806, 0.06714, 0.09155, -102.70650, 13.45500, -44.25200
8899, 1835.00000, -195.00000, 927.00000, 1.44806, 0.06714, -0.03052, -103.15500, 9.71750, -448939, 1830.00000, -196.00000, 930.00000, 1.44806, 0.00610, 0.03052, -103.15500, 9.71750, -44.8979, 1831.00000, -198.00000, 928.00000, 1.44806, 0.12817, 0.03052, -102.70650, 12.25900, -469019, 1832.00000, -198.00000, 936.00000, 1.57013, -0.11597, -0.03052, -103.45399, 13.45500, -9081, 1832.00000, -199.00000, 927.00000, 1.32599, 0.12817, -0.03052, -97.47400, 13.15600, -499121, 1834.00000, -197.00000, 925.00000, 1.57013, -0.11597, -0.15259, -101.95900, 11.96000, -9161, 1832.00000, -193.00000, 929.00000, 1.44806, 0.12817, 0.03052, -102.70650, 14.20250, -469201, 1828.00000, -195.00000, 930.00000, 1.38702, 0.12817, 0.03052, -102.70650, 14.20250, -469241, 1830.00000, -197.00000, 929.00000, 1.44806, 0.00610, 0.03052, -102.70650, 14.20250, -469360, 1831.00000, -195.00000, 930.00000, 1.44806, 0.12817, 0.09155, -97.62350, 13.45500, -50.9400, 1831.00000, -194.00000, 931.00000, 1.38702, 0.12817, 0.09155, -101.80950, 12.85700, -469440, 1831.00000, -192.00000, 932.00000, 1.44806, -0.05493, 0.03052, -101.80950, 12.85700, -49480, 1834.00000, -195.00000, 930.00000, 1.38702, 0.06714, -0.03052, -101.36100, 12.70750, -49520, 1834.00000, -198.00000, 926.00000, 1.44806, 0.00610, -0.03052, -102.40750, 13.00650, -49581, 1832.00000, -197.00000, 924.00000, 1.38702, 0.18921, 0.03052, -102.40750, 13.00650, -479621, 1832.00000, -197.00000, 928.00000, 1.57013, 0.06714, 0.03052, -103.45399, 13.75400, -469661, 1832.00000, -194.00000, 930.00000, 1.44806, 0.12817, 0.09155, -102.25800, 13.15600, -469701, 1834.00000, -197.00000, 930.00000, 1.44806, 0.12817, 0.03052, -101.66000, 12.70750, -459741, 1832.00000, -191.00000, 928.00000, 1.44806, -0.05493, -0.09155, -102.40750, 13.00650, -9858, 1832.00000, -195.00000, 928.00000, 1.50909, 0.18921, 0.03052, -97.92250, 16.14600, -51.9898, 1833.00000, -198.00000, 930.00000, 1.38702, -0.05493, -0.03052, -97.92250, 16.14600, -59938, 1830.00000, -194.00000, 928.00000, 1.44806, 0.06714, 0.09155, -102.70650, 13.45500, -44.25200
8939, 1830.00000, -196.00000, 930.00000, 1.44806, 0.00610, 0.03052, -103.15500, 9.71750, -44.8979, 1831.00000, -198.00000, 928.00000, 1.44806, 0.12817, 0.03052, -102.70650, 12.25900, -469019, 1832.00000, -198.00000, 936.00000, 1.57013, -0.11597, -0.03052, -103.45399, 13.45500, -9081, 1832.00000, -199.00000, 927.00000, 1.32599, 0.12817, -0.03052, -97.47400, 13.15600, -499121, 1834.00000, -197.00000, 925.00000, 1.57013, -0.11597, -0.15259, -101.95900, 11.96000, -9161, 1832.00000, -193.00000, 929.00000, 1.44806, 0.12817, 0.03052, -102.70650, 14.20250, -469201, 1828.00000, -195.00000, 930.00000, 1.38702, 0.12817, 0.03052, -102.70650, 14.20250, -469241, 1830.00000, -197.00000, 929.00000, 1.44806, 0.00610, 0.03052, -102.70650, 14.20250, -469360, 1831.00000, -195.00000, 930.00000, 1.44806, 0.12817, 0.09155, -97.62350, 13.45500, -50.9400, 1831.00000, -194.00000, 931.00000, 1.38702, 0.12817, 0.09155, -101.80950, 12.85700, -469440, 1831.00000, -192.00000, 932.00000, 1.44806, -0.05493, 0.03052, -101.80950, 12.85700, -49480, 1834.00000, -195.00000, 930.00000, 1.38702, 0.06714, -0.03052, -101.36100, 12.70750, -49520, 1834.00000, -198.00000, 926.00000, 1.44806, 0.00610, -0.03052, -102.40750, 13.00650, -49581, 1832.00000, -197.00000, 924.00000, 1.38702, 0.18921, 0.03052, -102.40750, 13.00650, -479621, 1832.00000, -197.00000, 928.00000, 1.57013, 0.06714, 0.03052, -103.45399, 13.75400, -469661, 1832.00000, -194.00000, 930.00000, 1.44806, 0.12817, 0.09155, -102.25800, 13.15600, -469701, 1834.00000, -197.00000, 930.00000, 1.44806, 0.12817, 0.03052, -101.66000, 12.70750, -459741, 1832.00000, -191.00000, 928.00000, 1.44806, -0.05493, -0.09155, -102.40750, 13.00650, -9858, 1832.00000, -195.00000, 928.00000, 1.50909, 0.18921, 0.03052, -97.92250, 16.14600, -51.9898, 1833.00000, -198.00000, 930.00000, 1.38702, -0.05493, -0.03052, -97.92250, 16.14600, -59938, 1830.00000, -194.00000, 928.00000, 1.44806, 0.06714, 0.09155, -102.70650, 13.45500, -44.25200
8979, 1831.00000, -198.00000, 928.00000, 1.44806, 0.12817, 0.03052, -102.70650, 12.25900, -469019, 1832.00000, -198.00000, 936.00000, 1.57013, -0.11597, -0.03052, -103.45399, 13.45500, -9081, 1832.00000, -199.00000, 927.00000, 1.32599, 0.12817, -0.03052, -97.47400, 13.15600, -499121, 1834.00000, -197.00000, 925.00000, 1.57013, -0.11597, -0.15259, -101.95900, 11.96000, -9161, 1832.00000, -193.00000, 929.00000, 1.44806, 0.12817, 0.03052, -102.70650, 14.20250, -469201, 1828.00000, -195.00000, 930.00000, 1.38702, 0.12817, 0.03052, -102.70650, 14.20250, -469241, 1830.00000, -197.00000, 929.00000, 1.44806, 0.00610, 0.03052, -102.70650, 14.20250, -469360, 1831.00000, -195.00000, 930.00000, 1.44806, 0.12817, 0.09155, -97.62350, 13.45500, -50.9400, 1831.00000, -194.00000, 931.00000, 1.38702, 0.12817, 0.09155, -101.80950, 12.85700, -469440, 1831.00000, -192.00000, 932.00000, 1.44806, -0.05493, 0.03052, -101.80950, 12.85700, -49480, 1834.00000, -195.00000, 930.00000, 1.38702, 0.06714, -0.03052, -101.36100, 12.70750, -49520, 1834.00000, -198.00000, 926.00000, 1.44806, 0.00610, -0.03052, -102.40750, 13.00650, -49581, 1832.00000, -197.00000, 924.00000, 1.38702, 0.18921, 0.03052, -102.40750, 13.00650, -479621, 1832.00000, -197.00000, 928.00000, 1.57013, 0.06714, 0.03052, -103.45399, 13.75400, -469661, 1832.00000, -194.00000, 930.00000, 1.44806, 0.12817, 0.09155, -102.25800, 13.15600, -469701, 1834.00000, -197.00000, 930.00000, 1.44806, 0.12817, 0.03052, -101.66000, 12.70750, -459741, 1832.00000, -191.00000, 928.00000, 1.44806, -0.05493, -0.09155, -102.40750, 13.00650, -9858, 1832.00000, -195.00000, 928.00000, 1.50909, 0.18921, 0.03052, -97.92250, 16.14600, -51.9898, 1833.00000, -198.00000, 930.00000, 1.38702, -0.05493, -0.03052, -97.92250, 16.14600, -59938, 1830.00000, -194.00000, 928.00000, 1.44806, 0.06714, 0.09155, -102.70650, 13.45500, -44.25200
9019, 1832.00000, -198.00000, 936.00000, 1.57013, -0.11597, -0.03052, -103.45399, 13.45500, -9081, 1832.00000, -199.00000, 927.00000, 1.32599, 0.12817, -0.03052, -97.47400, 13.15600, -499121, 1834.00000, -197.00000, 925.00000, 1.57013, -0.11597, -0.15259, -101.95900, 11.96000, -9161, 1832.00000, -193.00000, 929.00000, 1.44806, 0.12817, 0.03052, -102.70650, 14.20250, -469201, 1828.00000, -195.00000, 930.00000, 1.38702, 0.12817, 0.03052, -102.70650, 14.20250, -469241, 1830.00000, -197.00000, 929.00000, 1.44806, 0.00610, 0.03052, -102.70650, 14.20250, -469360, 1831.00000, -195.00000, 930.00000, 1.44806, 0.12817, 0.09155, -97.62350, 13.45500, -50.9400, 1831.00000, -194.00000, 931.00000, 1.38702, 0.12817, 0.09155, -101.80950, 12.85700, -469440, 1831.00000, -192.00000, 932.00000, 1.44806, -0.05493, 0.03052, -101.80950, 12.85700, -49480, 1834.00000, -195.00000, 930.00000, 1.38702, 0.06714, -0.03052, -101.36100, 12.70750, -49520, 1834.00000, -198.00000, 926.00000, 1.44806, 0.00610, -0.03052, -102.40750, 13.00650, -49581, 1832.00000, -197.00000, 924.00000, 1.38702, 0.18921, 0.03052, -102.40750, 13.00650, -479621, 1832.00000, -197.00000, 928.00000, 1.57013, 0.06714, 0.03052, -103.45399, 13.75400, -469661, 1832.00000, -194.00000, 930.00000, 1.44806, 0.12817, 0.09155, -102.25800, 13.15600, -469701, 1834.00000, -197.00000, 930.00000, 1.44806, 0.12817, 0.03052, -101.66000, 12.70750, -459741, 1832.00000, -191.00000, 928.00000, 1.44806, -0.05493, -0.09155, -102.40750, 13.00650, -9858, 1832.00000, -195.00000, 928.00000, 1.50909, 0.18921, 0.03052, -97.92250, 16.14600, -51.9898, 1833.00000, -198.00000, 930.00000, 1.38702, -0.05493, -0.03052, -97.92250, 16.14600, -59938, 1830.00000, -194.00000, 928.00000, 1.44806, 0.06714, 0.09155, -102.70650, 13.45500, -44.25200
9081, 1832.00000, -199.00000, 927.00000, 1.32599, 0.12817, -0.03052, -97.47400, 13.15600, -499121, 1834.00000, -197.00000, 925.00000, 1.57013, -0.11597, -0.15259, -101.95900, 11.96000, -9161, 1832.00000, -193.00000, 929.00000, 1.44806, 0.12817, 0.03052, -102.70650, 14.20250, -469201, 1828.00000, -195.00000, 930.00000, 1.38702, 0.12817, 0.03052, -102.70650, 14.20250, -469241, 1830.00000, -197.00000, 929.00000, 1.44806, 0.00610, 0.03052, -102.70650, 14.20250, -469360, 1831.00000, -195.00000, 930.00000, 1.44806, 0.12817, 0.09155, -97.62350, 13.45500, -50.9400, 1831.00000, -194.00000, 931.00000, 1.38702, 0.12817, 0.09155, -101.80950, 12.85700, -469440, 1831.00000, -192.00000, 932.00000, 1.44806, -0.05493, 0.03052, -101.80950, 12.85700, -49480, 1834.00000, -195.00000, 930.00000, 1.38702, 0.06714, -0.03052, -101.36100, 12.70750, -49520, 1834.00000, -198.00000, 926.00000, 1.44806, 0.00610, -0.03052, -102.40750, 13.00650, -49581, 1832.00000, -197.00000, 924.00000, 1.38702, 0.18921, 0.03052, -102.40750, 13.00650, -479621, 1832.00000, -197.00000, 928.00000, 1.57013, 0.06714, 0.03052, -103.45399, 13.75400, -469661, 1832.00000, -194.00000, 930.00000, 1.44806, 0.12817, 0.09155, -102.25800, 13.15600, -469701, 1834.00000, -197.00000, 930.00000, 1.44806, 0.12817, 0.03052, -101.66000, 12.70750, -459741, 1832.00000, -191.00000, 928.00000, 1.44806, -0.05493, -0.09155, -102.40750, 13.00650, -9858, 1832.00000, -195.00000, 928.00000, 1.50909, 0.18921, 0.03052, -97.92250, 16.14600, -51.9898, 1833.00000, -198.00000, 930.00000, 1.38702, -0.05493, -0.03052, -97.92250, 16.14600, -59938, 1830.00000, -194.00000, 928.00000, 1.44806, 0.06714, 0.09155, -102.70650, 13.45500, -44.25200
9121, 1834.00000, -197.00000, 925.00000, 1.57013, -0.11597, -0.15259, -101.95900, 11.96000, -9161, 1832.00000, -193.00000, 929.00000, 1.44806, 0.12817, 0.03052, -102.70650, 14.20250, -469201, 1828.00000, -195.00000, 930.00000, 1.38702, 0.12817, 0.03052, -102.70650, 14.20250, -469241, 1830.00000, -197.00000, 929.00000, 1.44806, 0.00610, 0.03052, -102.70650, 14.20250, -469360, 1831.00000, -195.00000, 930.00000, 1.44806, 0.12817, 0.09155, -97.62350, 13.45500, -50.9400, 1831.00000, -194.00000, 931.00000, 1.38702, 0.12817, 0.09155, -101.80950, 12.85700, -469440, 1831.00000, -192.00000, 932.00000, 1.44806, -0.05493, 0.03052, -101.80950, 12.85700, -49480, 1834.00000, -195.00000, 930.00000, 1.38702, 0.06714, -0.03052, -101.36100, 12.70750, -49520, 1834.00000, -198.00000, 926.00000, 1.44806, 0.00610, -0.03052, -102.40750, 13.00650, -49581, 1832.00000, -197.00000, 924.00000, 1.38702, 0.18921, 0.03052, -102.40750, 13.00650, -479621, 1832.00000, -197.00000, 928.00000, 1.57013, 0.06714, 0.03052, -103.45399, 13.75400, -469661, 1832.00000, -194.00000, 930.00000, 1.44806, 0.12817, 0.09155, -102.25800, 13.15600, -469701, 1834.00000, -197.00000, 930.00000, 1.44806, 0.12817, 0.03052, -101.66000, 12.70750, -459741, 1832.00000, -191.00000, 928.00000, 1.44806, -0.05493, -0.09155, -102.40750, 13.00650, -9858, 1832.00000, -195.00000, 928.00000, 1.50909, 0.18921, 0.03052, -97.92250, 16.14600, -51.9898, 1833.00000, -198.00000, 930.00000, 1.38702, -0.05493, -0.03052, -97.92250, 16.14600, -59938, 1830.00000, -194.00000, 928.00000, 1.44806, 0.06714, 0.09155, -102.70650, 13.45500, -44.25200
9161, 1832.00000, -193.00000, 929.00000, 1.44806, 0.12817, 0.03052, -102.70650, 14.20250, -469201, 1828.00000, -195.00000, 930.00000, 1.38702, 0.12817, 0.03052, -102.70650, 14.20250, -469241, 1830.00000, -197.00000, 929.00000, 1.44806, 0.00610, 0.03052, -102.70650, 14.20250, -469360, 1831.00000, -195.00000, 930.00000, 1.44806, 0.12817, 0.09155, -97.62350, 13.45500, -50.9400, 1831.00000, -194.00000, 931.00000, 1.38702, 0.12817, 0.09155, -101.80950, 12.85700, -469440, 1831.00000, -192.00000, 932.00000, 1.44806, -0.05493, 0.03052, -101.80950, 12.85700, -49480, 1834.00000, -195.00000, 930.00000, 1.38702, 0.06714, -0.03052, -101.36100, 12.70750, -49520, 1834.00000, -198.00000, 926.00000, 1.44806, 0.00610, -0.03052, -102.40750, 13.00650, -49581, 1832.00000, -197.00000, 924.00000, 1.38702, 0.18921, 0.03052, -102.40750, 13.00650, -479621, 1832.00000, -197.00000, 928.00000, 1.57013, 0.06714, 0.03052, -103.45399, 13.75400, -469661, 1832.00000, -194.00000, 930.00000, 1.44806, 0.12817, 0.09155, -102.25800, 13.15600, -469701, 1834.00000, -197.00000, 930.00000, 1.44806, 0.12817, 0.03052, -101.66000, 12.70750, -459741, 1832.00000, -191.00000, 928.00000, 1.44806, -0.05493, -0.09155, -102.40750, 13.00650, -9858, 1832.00000, -195.00000, 928.00000, 1.50909, 0.18921, 0.03052, -97.92250, 16.14600, -51.9898, 1833.00000, -198.00000, 930.00000, 1.38702, -0.05493, -0.03052, -97.92250, 16.14600, -59938, 1830.00000, -194.00000, 928.00000, 1.44806, 0.06714, 0.09155, -102.70650, 13.45500, -44.25200
9201, 1828.00000, -195.00000, 930.00000, 1.38702, 0.12817, 0.03052, -102.70650, 14.20250, -469241, 1830.00000, -197.00000, 929.00000, 1.44806, 0.00610, 0.03052, -102.70650, 14.20250, -469360, 1831.00000, -195.00000, 930.00000, 1.44806, 0.12817, 0.09155, -97.62350, 13.45500, -50.9400, 1831.00000, -194.00000, 931.00000, 1.38702, 0.12817, 0.09155, -101.80950, 12.85700, -469440, 1831.00000, -192.00000, 932.00000, 1.44806, -0.05493, 0.03052, -101.80950, 12.85700, -49480, 1834.00000, -195.00000, 930.00000, 1.38702, 0.06714, -0.03052, -101.36100, 12.70750, -49520, 1834.00000, -198.00000, 926.00000, 1.44806, 0.00610, -0.03052, -102.40750, 13.00650, -49581, 1832.00000, -197.00000, 924.00000, 1.38702, 0.18921, 0.03052, -102.40750, 13.00650, -479621, 1832.00000, -197.00000, 928.00000, 1.57013, 0.06714, 0.03052, -103.45399, 13.75400, -469661, 1832.00000, -194.00000, 930.00000, 1.44806, 0.12817, 0.09155, -102.25800, 13.15600, -469701, 1834.00000, -197.00000, 930.00000, 1.44806, 0.12817, 0.03052, -101.66000, 12.70750, -459741, 1832.00000, -191.00000, 928.00000, 1.44806, -0.05493, -0.09155, -102.40750, 13.00650, -9858, 1832.00000, -195.00000, 928.00000, 1.50909, 0.18921, 0.03052, -97.92250, 16.14600, -51.9898, 1833.00000, -198.00000, 930.00000, 1.38702, -0.05493, -0.03052, -97.92250, 16.14600, -59938, 1830.00000, -194.00000, 928.00000, 1.44806, 0.06714, 0.09155, -102.70650, 13.45500, -44.25200
9241, 1830.00000, -197.00000, 929.00000, 1.44806, 0.00610, 0.03052, -102.70650, 14.20250, -469360, 1831.00000, -195.00000, 930.00000, 1.44806, 0.12817, 0.09155, -97.62350, 13.45500, -50.9400, 1831.00000, -194.00000, 931.00000, 1.38702, 0.12817, 0.09155, -101.80950, 12.85700, -469440, 1831.00000, -192.00000, 932.00000, 1.44806, -0.05493, 0.03052, -101.80950, 12.85700, -49480, 1834.00000, -195.00000, 930.00000, 1.38702, 0.06714, -0.03052, -101.36100, 12.70750, -49520, 1834.00000, -198.00000, 926.00000, 1.44806, 0.00610, -0.03052, -102.40750, 13.00650, -49581, 1832.00000, -197.00000, 924.00000, 1.38702, 0.18921, 0.03052, -102.40750, 13.00650, -479621, 1832.00000, -197.00000, 928.00000, 1.57013, 0.06714, 0.03052, -103.45399, 13.75400, -469661, 1832.00000, -194.00000, 930.00000, 1.44806, 0.12817, 0.09155, -102.25800, 13.15600, -469701, 1834.00000, -197.00000, 930.00000, 1.44806, 0.12817, 0.03052, -101.66000, 12.70750, -459741, 1832.00000, -191.00000, 928.00000, 1.44806, -0.05493, -0.09155, -102.40750, 13.00650, -9858, 1832.00000, -195.00000, 928.00000, 1.50909, 0.18921, 0.03052, -97.92250, 16.14600, -51.9898, 1833.00000, -198.00000, 930.00000, 1.38702, -0.05493, -0.03052, -97.92250, 16.14600, -59938, 1830.00000, -194.00000, 928.00000, 1.44806, 0.06714, 0.09155, -102.70650, 13.45500, -44.25200
9360, 1831.00000, -195.00000, 930.00000, 1.44806, 0.12817, 0.09155, -97.62350, 13.45500, -50.9400, 1831.00000, -194.00000, 931.00000, 1.38702, 0.12817, 0.09155, -101.80950, 12.85700, -469440, 1831.00000, -192.00000, 932.00000, 1.44806, -0.05493, 0.03052, -101.80950, 12.85700, -49480, 1834.00000, -195.00000, 930.00000, 1.38702, 0.06714, -0.03052, -101.36100, 12.70750, -49520, 1834.00000, -198.00000, 926.00000, 1.44806, 0.00610, -0.03052, -102.40750, 13.00650, -49581, 1832.00000, -197.00000, 924.00000, 1.38702, 0.18921, 0.03052, -102.40750, 13.00650, -479621, 1832.00000, -197.00000, 928.00000, 1.57013, 0.06714, 0.03052, -103.45399, 13.75400, -469661, 1832.00000, -194.00000, 930.00000, 1.44806, 0.12817, 0.09155, -102.25800, 13.15600, -469701, 1834.00000, -197.00000, 930.00000, 1.44806, 0.12817, 0.03052, -101.66000, 12.70750, -459741, 1832.00000, -191.00000, 928.00000, 1.44806, -0.05493, -0.09155, -102.40750, 13.00650, -9858, 1832.00000, -195.00000, 928.00000, 1.50909, 0.18921, 0.03052, -97.92250, 16.14600, -51.9898, 1833.00000, -198.00000, 930.00000, 1.38702, -0.05493, -0.03052, -97.92250, 16.14600, -59938, 1830.00000, -194.00000, 928.00000, 1.44806, 0.06714, 0.09155, -102.70650, 13.45500, -44.25200
9400, 1831.00000, -194.00000, 931.00000, 1.38702, 0.12817, 0.09155, -101.80950, 12.85700, -469440, 1831.00000, -192.00000, 932.00000, 1.44806, -0.05493, 0.03052, -101.80950, 12.85700, -49480, 1834.00000, -195.00000, 930.00000, 1.38702, 0.06714, -0.03052, -101.36100, 12.70750, -49520, 1834.00000, -198.00000, 926.00000, 1.44806, 0.00610, -0.03052, -102.40750, 13.00650, -49581, 1832.00000, -197.00000, 924.00000, 1.38702, 0.18921, 0.03052, -102.40750, 13.00650, -479621, 1832.00000, -197.00000, 928.00000, 1.57013, 0.06714, 0.03052, -103.45399, 13.75400, -469661, 1832.00000, -194.00000, 930.00000, 1.44806, 0.12817, 0.09155, -102.25800, 13.15600, -469701, 1834.00000, -197.00000, 930.00000, 1.44806, 0.12817, 0.03052, -101.66000, 12.70750, -459741, 1832.00000, -191.00000, 928.00000, 1.44806, -0.05493, -0.09155, -102.40750, 13.00650, -9858, 1832.00000, -195.00000, 928.00000, 1.50909, 0.18921, 0.03052, -97.92250, 16.14600, -51.9898, 1833.00000, -198.00000, 930.00000, 1.38702, -0.05493, -0.03052, -97.92250, 16.14600, -59938, 1830.00000, -194.00000, 928.00000, 1.44806, 0.06714, 0.09155, -102.70650, 13.45500, -44.25200
9440, 1831.00000, -192.00000, 932.00000, 1.44806, -0.05493, 0.03052, -101.80950, 12.85700, -49480, 1834.00000, -195.00000, 930.00000, 1.38702, 0.06714, -0.03052, -101.36100, 12.70750, -49520, 1834.00000, -198.00000, 926.00000, 1.44806, 0.00610, -0.03052, -102.40750, 13.00650, -49581, 1832.00000, -197.00000, 924.00000, 1.38702, 0.18921, 0.03052, -102.40750, 13.00650, -479621, 1832.00000, -197.00000, 928.00000, 1.57013, 0.06714, 0.03052, -103.45399, 13.75400, -469661, 1832.00000, -194.00000, 930.00000, 1.44806, 0.12817, 0.09155, -102.25800, 13.15600, -469701, 1834.00000, -197.00000, 930.00000, 1.44806, 0.12817, 0.03052, -101.66000, 12.70750, -459741, 1832.00000, -191.00000, 928.00000, 1.44806, -0.05493, -0.09155, -102.40750, 13.00650, -9858, 1832.00000, -195.00000, 928.00000, 1.50909, 0.18921, 0.03052, -97.92250, 16.14600, -51.9898, 1833.00000, -198.00000, 930.00000, 1.38702, -0.05493, -0.03052, -97.92250, 16.14600, -59938, 1830.00000, -194.00000, 928.00000, 1.44806, 0.06714, 0.09155, -102.70650, 13.45500, -44.25200
9480, 1834.00000, -195.00000, 930.00000, 1.38702, 0.06714, -0.03052, -101.36100, 12.70750, -49520, 1834.00000, -198.00000, 926.00000, 1.44806, 0.00610, -0.03052, -102.40750, 13.00650, -49581, 1832.00000, -197.00000, 924.00000, 1.38702, 0.18921, 0.03052, -102.40750, 13.00650, -479621, 1832.00000, -197.00000, 928.00000, 1.57013, 0.06714, 0.03052, -103.45399, 13.75400, -469661, 1832.00000, -194.00000, 930.00000, 1.44806, 0.12817, 0.09155, -102.25800, 13.15600, -469701, 1834.00000, -197.00000, 930.00000, 1.44806, 0.12817, 0.03052, -101.66000, 12.70750, -459741, 1832.00000, -191.00000, 928.00000, 1.44806, -0.05493, -0.09155, -102.40750, 13.00650, -9858, 1832.00000, -195.00000, 928.00000, 1.50909, 0.18921, 0.03052, -97.92250, 16.14600, -51.9898, 1833.00000, -198.00000, 930.00000, 1.38702, -0.05493, -0.03052, -97.92250, 16.14600, -59938, 1830.00000, -194.00000, 928.00000, 1.44806, 0.06714, 0.09155, -102.70650, 13.45500, -44.25200
9520, 1834.00000, -198.00000, 926.00000, 1.44806, 0.00610, -0.03052, -102.40750, 13.00650, -49581, 1832.00000, -197.00000, 924.00000, 1.38702, 0.18921, 0.03052, -102.40750, 13.00650, -479621, 1832.00000, -197.00000, 928.00000, 1.57013, 0.06714, 0.03052, -103.45399, 13.75400, -469661, 1832.00000, -194.00000, 930.00000, 1.44806, 0.12817, 0.09155, -102.25800, 13.15600, -469701, 1834.00000, -197.00000, 930.00000, 1.44806, 0.12817, 0.03052, -101.66000, 12.70750, -459741, 1832.00000, -191.00000, 928.00000, 1.44806, -0.05493, -0.09155, -102.40750, 13.00650, -9858, 1832.00000, -195.00000, 928.00000, 1.50909, 0.18921, 0.03052, -97.92250, 16.14600, -51.9898, 1833.00000, -198.00000, 930.00000, 1.38702, -0.05493, -0.03052, -97.92250, 16.14600, -59938, 1830.00000, -194.00000, 928.00000, 1.44806, 0.06714, 0.09155, -102.70650, 13.45500, -44.25200
9581, 1832.00000, -197.00000, 924.00000, 1.38702, 0.18921, 0.03052, -102.40750, 13.00650, -479621, 1832.00000, -197.00000, 928.00000, 1.57013, 0.06714, 0.03052, -103.45399, 13.75400, -469661, 1832.00000, -194.00000, 930.00000, 1.44806, 0.12817, 0.09155, -102.25800, 13.15600, -469701, 1834.00000, -197.00000, 930.00000, 1.44806, 0.12817, 0.03052, -101.66000, 12.70750, -459741, 1832.00000, -191.00000, 928.00000, 1.44806, -0.05493, -0.09155, -102.40750, 13.00650, -9858, 1832.00000, -195.00000, 928.00000, 1.50909, 0.18921, 0.03052, -97.92250, 16.14600, -51.9898, 1833.00000, -198.00000, 930.00000, 1.38702, -0.05493, -0.03052, -97.92250, 16.14600, -59938, 1830.00000, -194.00000, 928.00000, 1.44806, 0.06714, 0.09155, -102.70650, 13.45500, -44.25200
9621, 1832.00000, -197.00000, 928.00000, 1.57013, 0.06714, 0.03052, -103.45399, 13.75400, -469661, 1832.00000, -194.00000, 930.00000, 1.44806, 0.12817, 0.09155, -102.25800, 13.15600, -469701, 1834.00000, -197.00000, 930.00000, 1.44806, 0.12817, 0.03052, -101.66000, 12.70750, -459741, 1832.00000, -191.00000, 928.00000, 1.44806, -0.05493, -0.09155, -102.40750, 13.00650, -9858, 1832.00000, -195.00000, 928.00000, 1.50909, 0.18921, 0.03052, -97.92250, 16.14600, -51.9898, 1833.00000, -198.00000, 930.00000, 1.38702, -0.05493, -0.03052, -97.92250, 16.14600, -59938, 1830.00000, -194.00000, 928.00000, 1.44806, 0.06714, 0.09155, -102.70650, 13.45500, -44.25200
9661, 1832.00000, -194.00000, 930.00000, 1.44806, 0.12817, 0.09155, -102.25800, 13.15600, -469701, 1834.00000, -197.00000, 930.00000, 1.44806, 0.12817, 0.03052, -101.66000, 12.70750, -459741, 1832.00000, -191.00000, 928.00000, 1.44806, -0.05493, -0.09155, -102.40750, 13.00650, -9858, 1832.00000, -195.00000, 928.00000, 1.50909, 0.18921, 0.03052, -97.92250, 16.14600, -51.9898, 1833.00000, -198.00000, 930.00000, 1.38702, -0.05493, -0.03052, -97.92250, 16.14600, -59938, 1830.00000, -194.00000, 928.00000, 1.44806, 0.06714, 0.09155, -102.70650, 13.45500, -44.25200
9701, 1834.00000, -197.00000, 930.00000, 1.44806, 0.12817, 0.03052, -101.66000, 12.70750, -459741, 1832.00000, -191.00000, 928.00000, 1.44806, -0.05493, -0.09155, -102.40750, 13.00650, -9858, 1832.00000, -195.00000, 928.00000, 1.50909, 0.18921, 0.03052, -97.92250, 16.14600, -51.9898, 1833.00000, -198.00000, 930.00000, 1.38702, -0.05493, -0.03052, -97.92250, 16.14600, -59938, 1830.00000, -194.00000, 928.00000, 1.44806, 0.06714, 0.09155, -102.70650, 13.45500, -44.25200
9741, 1832.00000, -191.00000, 928.00000, 1.44806, -0.05493, -0.09155, -102.40750, 13.00650, -9858, 1832.00000, -195.00000, 928.00000, 1.50909, 0.18921, 0.03052, -97.92250, 16.14600, -51.9898, 1833.00000, -198.00000, 930.00000, 1.38702, -0.05493, -0.03052, -97.92250, 16.14600, -59938, 1830.00000, -194.00000, 928.00000, 1.44806, 0.06714, 0.09155, -102.70650, 13.45500, -44.25200
9858, 1832.00000, -195.00000, 928.00000, 1.50909, 0.18921, 0.03052, -97.92250, 16.14600, -51.9898, 1833.00000, -198.00000, 930.00000, 1.38702, -0.05493, -0.03052, -97.92250, 16.14600, -59938, 1830.00000, -194.00000, 928.00000, 1.44806, 0.06714, 0.09155, -102.70650, 13.45500, -44.25200
9898, 1833.00000, -198.00000, 930.00000, 1.38702, -0.05493, -0.03052, -97.92250, 16.14600, -59938, 1830.00000, -194.00000, 928.00000, 1.44806, 0.06714, 0.09155, -102.70650, 13.45500, -44.25200
9938, 1830.00000, -194.00000, 928.00000, 1.44806, 0.06714, 0.09155, -102.70650, 13.45500, -44.25200
10120, 1833.00000, -195.00000, 930.00000, 1.44806, 0.25024, 0.03052, -98.22150, 14.35200, -4910203, 1833.00000, -195.00000, 930.00000, 1.44806, 0.31128, 0.03052, -98.22150, 14.35200, -4910243, 1833.00000, -194.00000, 929.00000, 1.44806, 0.06714, -0.03052, -98.22150, 14.35200, -410283, 1836.00000, -194.00000, 928.00000, 1.44806, -0.05493, 0.03052, -101.66000, 12.25900, -10323, 1835.00000, -192.00000, 928.00000, 1.44806, 0.06714, 0.09155, -101.66000, 12.25900, -410363, 1833.00000, -193.00000, 926.00000, 1.50909, 0.06714, -0.03052, -102.70650, 12.25900, -10423, 1833.00000, -191.00000, 929.00000, 1.44806, -0.05493, -0.03052, -99.26800, 15.39850, -10463, 1831.00000, -192.00000, 930.00000, 1.50909, 0.18921, 0.03052, -99.56700, 13.45500, -4810503, 1831.00000, -196.00000, 925.00000, 1.50909, 0.00610, -0.03052, -102.40750, 13.00650, -10543, 1835.00000, -196.00000, 926.00000, 1.50909, -0.05493, -0.03052, -102.40750, 13.00650, 10583, 1833.00000, -197.00000, 929.00000, 1.38702, 0.25024, 0.09155, -102.40750, 13.00650, -410673, 1827.00000, -195.00000, 927.00000, 1.50909, 0.00610, -0.09155, -102.55700, 13.90350, -10713, 1834.00000, -194.00000, 919.00000, 1.50909, -0.11597, -0.03052, -100.76300, 12.40850, 10753, 1833.00000, -197.00000, 924.00000, 1.44806, 0.00610, 0.03052, -101.66000, 13.00650, -410793, 1832.00000, -195.00000, 930.00000, 1.44806, 0.06714, 0.09155, -101.06200, 13.15600, -410833, 1830.00000, -191.00000, 933.00000, 1.38702, 0.18921, 0.03052, -103.30450, 13.60450, -410946, 1834.00000, -197.00000, 924.00000, 1.44806, -0.11597, -0.03052, -103.30450, 13.60450, 10986, 1837.00000, -192.00000, 928.00000, 1.38702, 0.18921, 0.15259, -103.00550, 13.90350, -411026, 1834.00000, -192.00000, 929.00000, 1.38702, 0.00610, 0.09155, -102.70650, 12.70750, -411066, 1831.00000, -195.00000, 928.00000, 1.44806, 0.12817, 0.09155, -102.70650, 12.70750, -411106, 1830.00000, -193.00000, 926.00000, 1.50909, 0.06714, 0.03052, -101.06200, 13.15600, -411173, 1836.00000, -196.00000, 924.00000, 1.50909, 0.00610, 0.03052, -99.11850, 14.50150, -5111213, 1834.00000, -194.00000, 926.00000, 1.57013, -0.05493, -0.03052, -99.11850, 14.50150, -11253, 1834.00000, -191.00000, 924.00000, 1.32599, 0.31128, 0.15259, -99.11850, 14.50150, -5111293, 1831.00000, -198.00000, 930.00000, 1.44806, 0.12817, 0.03052, -101.95900, 13.00650, -43.20550
10203, 1833.00000, -195.00000, 930.00000, 1.44806, 0.31128, 0.03052, -98.22150, 14.35200, -4910243, 1833.00000, -194.00000, 929.00000, 1.44806, 0.06714, -0.03052, -98.22150, 14.35200, -410283, 1836.00000, -194.00000, 928.00000, 1.44806, -0.05493, 0.03052, -101.66000, 12.25900, -10323, 1835.00000, -192.00000, 928.00000, 1.44806, 0.06714, 0.09155, -101.66000, 12.25900, -410363, 1833.00000, -193.00000, 926.00000, 1.50909, 0.06714, -0.03052, -102.70650, 12.25900, -10423, 1833.00000, -191.00000, 929.00000, 1.44806, -0.05493, -0.03052, -99.26800, 15.39850, -10463, 1831.00000, -192.00000, 930.00000, 1.50909, 0.18921, 0.03052, -99.56700, 13.45500, -4810503, 1831.00000, -196.00000, 925.00000, 1.50909, 0.00610, -0.03052, -102.40750, 13.00650, -10543, 1835.00000, -196.00000, 926.00000, 1.50909, -0.05493, -0.03052, -102.40750, 13.00650, 10583, 1833.00000, -197.00000, 929.00000, 1.38702, 0.25024, 0.09155, -102.40750, 13.00650, -410673, 1827.00000, -195.00000, 927.00000, 1.50909, 0.00610, -0.09155, -102.55700, 13.90350, -10713, 1834.00000, -194.00000, 919.00000, 1.50909, -0.11597, -0.03052, -100.76300, 12.40850, 10753, 1833.00000, -197.00000, 924.00000, 1.44806, 0.00610, 0.03052, -101.66000, 13.00650, -410793, 1832.00000, -195.00000, 930.00000, 1.44806, 0.06714, 0.09155, -101.06200, 13.15600, -410833, 1830.00000, -191.00000, 933.00000, 1.38702, 0.18921, 0.03052, -103.30450, 13.60450, -410946, 1834.00000, -197.00000, 924.00000, 1.44806, -0.11597, -0.03052, -103.30450, 13.60450, 10986, 1837.00000, -192.00000, 928.00000, 1.38702, 0.18921, 0.15259, -103.00550, 13.90350, -411026, 1834.00000, -192.00000, 929.00000, 1.38702, 0.00610, 0.09155, -102.70650, 12.70750, -411066, 1831.00000, -195.00000, 928.00000, 1.44806, 0.12817, 0.09155, -102.70650, 12.70750, -411106, 1830.00000, -193.00000, 926.00000, 1.50909, 0.06714, 0.03052, -101.06200, 13.15600, -411173, 1836.00000, -196.00000, 924.00000, 1.50909, 0.00610, 0.03052, -99.11850, 14.50150, -5111213, 1834.00000, -194.00000, 926.00000, 1.57013, -0.05493, -0.03052, -99.11850, 14.50150, -11253, 1834.00000, -191.00000, 924.00000, 1.32599, 0.31128, 0.15259, -99.11850, 14.50150, -5111293, 1831.00000, -198.00000, 930.00000, 1.44806, 0.12817, 0.03052, -101.95900, 13.00650, -43.20550
10243, 1833.00000, -194.00000, 929.00000, 1.44806, 0.06714, -0.03052, -98.22150, 14.35200, -410283, 1836.00000, -194.00000, 928.00000, 1.44806, -0.05493, 0.03052, -101.66000, 12.25900, -10323, 1835.00000, -192.00000, 928.00000, 1.44806, 0.06714, 0.09155, -101.66000, 12.25900, -410363, 1833.00000, -193.00000, 926.00000, 1.50909, 0.06714, -0.03052, -102.70650, 12.25900, -10423, 1833.00000, -191.00000, 929.00000, 1.44806, -0.05493, -0.03052, -99.26800, 15.39850, -10463, 1831.00000, -192.00000, 930.00000, 1.50909, 0.18921, 0.03052, -99.56700, 13.45500, -4810503, 1831.00000, -196.00000, 925.00000, 1.50909, 0.00610, -0.03052, -102.40750, 13.00650, -10543, 1835.00000, -196.00000, 926.00000, 1.50909, -0.05493, -0.03052, -102.40750, 13.00650, 10583, 1833.00000, -197.00000, 929.00000, 1.38702, 0.25024, 0.09155, -102.40750, 13.00650, -410673, 1827.00000, -195.00000, 927.00000, 1.50909, 0.00610, -0.09155, -102.55700, 13.90350, -10713, 1834.00000, -194.00000, 919.00000, 1.50909, -0.11597, -0.03052, -100.76300, 12.40850, 10753, 1833.00000, -197.00000, 924.00000, 1.44806, 0.00610, 0.03052, -101.66000, 13.00650, -410793, 1832.00000, -195.00000, 930.00000, 1.44806, 0.06714, 0.09155, -101.06200, 13.15600, -410833, 1830.00000, -191.00000, 933.00000, 1.38702, 0.18921, 0.03052, -103.30450, 13.60450, -410946, 1834.00000, -197.00000, 924.00000, 1.44806, -0.11597, -0.03052, -103.30450, 13.60450, 10986, 1837.00000, -192.00000, 928.00000, 1.38702, 0.18921, 0.15259, -103.00550, 13.90350, -411026, 1834.00000, -192.00000, 929.00000, 1.38702, 0.00610, 0.09155, -102.70650, 12.70750, -411066, 1831.00000, -195.00000, 928.00000, 1.44806, 0.12817, 0.09155, -102.70650, 12.70750, -411106, 1830.00000, -193.00000, 926.00000, 1.50909, 0.06714, 0.03052, -101.06200, 13.15600, -411173, 1836.00000, -196.00000, 924.00000, 1.50909, 0.00610, 0.03052, -99.11850, 14.50150, -5111213, 1834.00000, -194.00000, 926.00000, 1.57013, -0.05493, -0.03052, -99.11850, 14.50150, -11253, 1834.00000, -191.00000, 924.00000, 1.32599, 0.31128, 0.15259, -99.11850, 14.50150, -5111293, 1831.00000, -198.00000, 930.00000, 1.44806, 0.12817, 0.03052, -101.95900, 13.00650, -43.20550
10283, 1836.00000, -194.00000, 928.00000, 1.44806, -0.05493, 0.03052, -101.66000, 12.25900, -10323, 1835.00000, -192.00000, 928.00000, 1.44806, 0.06714, 0.09155, -101.66000, 12.25900, -410363, 1833.00000, -193.00000, 926.00000, 1.50909, 0.06714, -0.03052, -102.70650, 12.25900, -10423, 1833.00000, -191.00000, 929.00000, 1.44806, -0.05493, -0.03052, -99.26800, 15.39850, -10463, 1831.00000, -192.00000, 930.00000, 1.50909, 0.18921, 0.03052, -99.56700, 13.45500, -4810503, 1831.00000, -196.00000, 925.00000, 1.50909, 0.00610, -0.03052, -102.40750, 13.00650, -10543, 1835.00000, -196.00000, 926.00000, 1.50909, -0.05493, -0.03052, -102.40750, 13.00650, 10583, 1833.00000, -197.00000, 929.00000, 1.38702, 0.25024, 0.09155, -102.40750, 13.00650, -410673, 1827.00000, -195.00000, 927.00000, 1.50909, 0.00610, -0.09155, -102.55700, 13.90350, -10713, 1834.00000, -194.00000, 919.00000, 1.50909, -0.11597, -0.03052, -100.76300, 12.40850, 10753, 1833.00000, -197.00000, 924.00000, 1.44806, 0.00610, 0.03052, -101.66000, 13.00650, -410793, 1832.00000, -195.00000, 930.00000, 1.44806, 0.06714, 0.09155, -101.06200, 13.15600, -410833, 1830.00000, -191.00000, 933.00000, 1.38702, 0.18921, 0.03052, -103.30450, 13.60450, -410946, 1834.00000, -197.00000, 924.00000, 1.44806, -0.11597, -0.03052, -103.30450, 13.60450, 10986, 1837.00000, -192.00000, 928.00000, 1.38702, 0.18921, 0.15259, -103.00550, 13.90350, -411026, 1834.00000, -192.00000, 929.00000, 1.38702, 0.00610, 0.09155, -102.70650, 12.70750, -411066, 1831.00000, -195.00000, 928.00000, 1.44806, 0.12817, 0.09155, -102.70650, 12.70750, -411106, 1830.00000, -193.00000, 926.00000, 1.50909, 0.06714, 0.03052, -101.06200, 13.15600, -411173, 1836.00000, -196.00000, 924.00000, 1.50909, 0.00610, 0.03052, -99.11850, 14.50150, -5111213, 1834.00000, -194.00000, 926.00000, 1.57013, -0.05493, -0.03052, -99.11850, 14.50150, -11253, 1834.00000, -191.00000, 924.00000, 1.32599, 0.31128, 0.15259, -99.11850, 14.50150, -5111293, 1831.00000, -198.00000, 930.00000, 1.44806, 0.12817, 0.03052, -101.95900, 13.00650, -43.20550
10323, 1835.00000, -192.00000, 928.00000, 1.44806, 0.06714, 0.09155, -101.66000, 12.25900, -410363, 1833.00000, -193.00000, 926.00000, 1.50909, 0.06714, -0.03052, -102.70650, 12.25900, -10423, 1833.00000, -191.00000, 929.00000, 1.44806, -0.05493, -0.03052, -99.26800, 15.39850, -10463, 1831.00000, -192.00000, 930.00000, 1.50909, 0.18921, 0.03052, -99.56700, 13.45500, -4810503, 1831.00000, -196.00000, 925.00000, 1.50909, 0.00610, -0.03052, -102.40750, 13.00650, -10543, 1835.00000, -196.00000, 926.00000, 1.50909, -0.05493, -0.03052, -102.40750, 13.00650, 10583, 1833.00000, -197.00000, 929.00000, 1.38702, 0.25024, 0.09155, -102.40750, 13.00650, -410673, 1827.00000, -195.00000, 927.00000, 1.50909, 0.00610, -0.09155, -102.55700, 13.90350, -10713, 1834.00000, -194.00000, 919.00000, 1.50909, -0.11597, -0.03052, -100.76300, 12.40850, 10753, 1833.00000, -197.00000, 924.00000, 1.44806, 0.00610, 0.03052, -101.66000, 13.00650, -410793, 1832.00000, -195.00000, 930.00000, 1.44806, 0.06714, 0.09155, -101.06200, 13.15600, -410833, 1830.00000, -191.00000, 933.00000, 1.38702, 0.18921, 0.03052, -103.30450, 13.60450, -410946, 1834.00000, -197.00000, 924.00000, 1.44806, -0.11597, -0.03052, -103.30450, 13.60450, 10986, 1837.00000, -192.00000, 928.00000, 1.38702, 0.18921, 0.15259, -103.00550, 13.90350, -411026, 1834.00000, -192.00000, 929.00000, 1.38702, 0.00610, 0.09155, -102.70650, 12.70750, -411066, 1831.00000, -195.00000, 928.00000, 1.44806, 0.12817, 0.09155, -102.70650, 12.70750, -411106, 1830.00000, -193.00000, 926.00000, 1.50909, 0.06714, 0.03052, -101.06200, 13.15600, -411173, 1836.00000, -196.00000, 924.00000, 1.50909, 0.00610, 0.03052, -99.11850, 14.50150, -5111213, 1834.00000, -194.00000, 926.00000, 1.57013, -0.05493, -0.03052, -99.11850, 14.50150, -11253, 1834.00000, -191.00000, 924.00000, 1.32599, 0.31128, 0.15259, -99.11850, 14.50150, -5111293, 1831.00000, -198.00000, 930.00000, 1.44806, 0.12817, 0.03052, -101.95900, 13.00650, -43.20550
10363, 1833.00000, -193.00000, 926.00000, 1.50909, 0.06714, -0.03052, -102.70650, 12.25900, -10423, 1833.00000, -191.00000, 929.00000, 1.44806, -0.05493, -0.03052, -99.26800, 15.39850, -10463, 1831.00000, -192.00000, 930.00000, 1.50909, 0.18921, 0.03052, -99.56700, 13.45500, -4810503, 1831.00000, -196.00000, 925.00000, 1.50909, 0.00610, -0.03052, -102.40750, 13.00650, -10543, 1835.00000, -196.00000, 926.00000, 1.50909, -0.05493, -0.03052, -102.40750, 13.00650, 10583, 1833.00000, -197.00000, 929.00000, 1.38702, 0.25024, 0.09155, -102.40750, 13.00650, -410673, 1827.00000, -195.00000, 927.00000, 1.50909, 0.00610, -0.09155, -102.55700, 13.90350, -10713, 1834.00000, -194.00000, 919.00000, 1.50909, -0.11597, -0.03052, -100.76300, 12.40850, 10753, 1833.00000, -197.00000, 924.00000, 1.44806, 0.00610, 0.03052, -101.66000, 13.00650, -410793, 1832.00000, -195.00000, 930.00000, 1.44806, 0.06714, 0.09155, -101.06200, 13.15600, -410833, 1830.00000, -191.00000, 933.00000, 1.38702, 0.18921, 0.03052, -103.30450, 13.60450, -410946, 1834.00000, -197.00000, 924.00000, 1.44806, -0.11597, -0.03052, -103.30450, 13.60450, 10986, 1837.00000, -192.00000, 928.00000, 1.38702, 0.18921, 0.15259, -103.00550, 13.90350, -411026, 1834.00000, -192.00000, 929.00000, 1.38702, 0.00610, 0.09155, -102.70650, 12.70750, -411066, 1831.00000, -195.00000, 928.00000, 1.44806, 0.12817, 0.09155, -102.70650, 12.70750, -411106, 1830.00000, -193.00000, 926.00000, 1.50909, 0.06714, 0.03052, -101.06200, 13.15600, -411173, 1836.00000, -196.00000, 924.00000, 1.50909, 0.00610, 0.03052, -99.11850, 14.50150, -5111213, 1834.00000, -194.00000, 926.00000, 1.57013, -0.05493, -0.03052, -99.11850, 14.50150, -11253, 1834.00000, -191.00000, 924.00000, 1.32599, 0.31128, 0.15259, -99.11850, 14.50150, -5111293, 1831.00000, -198.00000, 930.00000, 1.44806, 0.12817, 0.03052, -101.95900, 13.00650, -43.20550
10423, 1833.00000, -191.00000, 929.00000, 1.44806, -0.05493, -0.03052, -99.26800, 15.39850, -10463, 1831.00000, -192.00000, 930.00000, 1.50909, 0.18921, 0.03052, -99.56700, 13.45500, -4810503, 1831.00000, -196.00000, 925.00000, 1.50909, 0.00610, -0.03052, -102.40750, 13.00650, -10543, 1835.00000, -196.00000, 926.00000, 1.50909, -0.05493, -0.03052, -102.40750, 13.00650, 10583, 1833.00000, -197.00000, 929.00000, 1.38702, 0.25024, 0.09155, -102.40750, 13.00650, -410673, 1827.00000, -195.00000, 927.00000, 1.50909, 0.00610, -0.09155, -102.55700, 13.90350, -10713, 1834.00000, -194.00000, 919.00000, 1.50909, -0.11597, -0.03052, -100.76300, 12.40850, 10753, 1833.00000, -197.00000, 924.00000, 1.44806, 0.00610, 0.03052, -101.66000, 13.00650, -410793, 1832.00000, -195.00000, 930.00000, 1.44806, 0.06714, 0.09155, -101.06200, 13.15600, -410833, 1830.00000, -191.00000, 933.00000, 1.38702, 0.18921, 0.03052, -103.30450, 13.60450, -410946, 1834.00000, -197.00000, 924.00000, 1.44806, -0.11597, -0.03052, -103.30450, 13.60450, 10986, 1837.00000, -192.00000, 928.00000, 1.38702, 0.18921, 0.15259, -103.00550, 13.90350, -411026, 1834.00000, -192.00000, 929.00000, 1.38702, 0.00610, 0.09155, -102.70650, 12.70750, -411066, 1831.00000, -195.00000, 928.00000, 1.44806, 0.12817, 0.09155, -102.70650, 12.70750, -411106, 1830.00000, -193.00000, 926.00000, 1.50909, 0.06714, 0.03052, -101.06200, 13.15600, -411173, 1836.00000, -196.00000, 924.00000, 1.50909, 0.00610, 0.03052, -99.11850, 14.50150, -5111213, 1834.00000, -194.00000, 926.00000, 1.57013, -0.05493, -0.03052, -99.11850, 14.50150, -11253, 1834.00000, -191.00000, 924.00000, 1.32599, 0.31128, 0.15259, -99.11850, 14.50150, -5111293, 1831.00000, -198.00000, 930.00000, 1.44806, 0.12817, 0.03052, -101.95900, 13.00650, -43.20550
10463, 1831.00000, -192.00000, 930.00000, 1.50909, 0.18921, 0.03052, -99.56700, 13.45500, -4810503, 1831.00000, -196.00000, 925.00000, 1.50909, 0.00610, -0.03052, -102.40750, 13.00650, -10543, 1835.00000, -196.00000, 926.00000, 1.50909, -0.05493, -0.03052, -102.40750, 13.00650, 10583, 1833.00000, -197.00000, 929.00000, 1.38702, 0.25024, 0.09155, -102.40750, 13.00650, -410673, 1827.00000, -195.00000, 927.00000, 1.50909, 0.00610, -0.09155, -102.55700, 13.90350, -10713, 1834.00000, -194.00000, 919.00000, 1.50909, -0.11597, -0.03052, -100.76300, 12.40850, 10753, 1833.00000, -197.00000, 924.00000, 1.44806, 0.00610, 0.03052, -101.66000, 13.00650, -410793, 1832.00000, -195.00000, 930.00000, 1.44806, 0.06714, 0.09155, -101.06200, 13.15600, -410833, 1830.00000, -191.00000, 933.00000, 1.38702, 0.18921, 0.03052, -103.30450, 13.60450, -410946, 1834.00000, -197.00000, 924.00000, 1.44806, -0.11597, -0.03052, -103.30450, 13.60450, 10986, 1837.00000, -192.00000, 928.00000, 1.38702, 0.18921, 0.15259, -103.00550, 13.90350, -411026, 1834.00000, -192.00000, 929.00000, 1.38702, 0.00610, 0.09155, -102.70650, 12.70750, -411066, 1831.00000, -195.00000, 928.00000, 1.44806, 0.12817, 0.09155, -102.70650, 12.70750, -411106, 1830.00000, -193.00000, 926.00000, 1.50909, 0.06714, 0.03052, -101.06200, 13.15600, -411173, 1836.00000, -196.00000, 924.00000, 1.50909, 0.00610, 0.03052, -99.11850, 14.50150, -5111213, 1834.00000, -194.00000, 926.00000, 1.57013, -0.05493, -0.03052, -99.11850, 14.50150, -11253, 1834.00000, -191.00000, 924.00000, 1.32599, 0.31128, 0.15259, -99.11850, 14.50150, -5111293, 1831.00000, -198.00000, 930.00000, 1.44806, 0.12817, 0.03052, -101.95900, 13.00650, -43.20550
10503, 1831.00000, -196.00000, 925.00000, 1.50909, 0.00610, -0.03052, -102.40750, 13.00650, -10543, 1835.00000, -196.00000, 926.00000, 1.50909, -0.05493, -0.03052, -102.40750, 13.00650, 10583, 1833.00000, -197.00000, 929.00000, 1.38702, 0.25024, 0.09155, -102.40750, 13.00650, -410673, 1827.00000, -195.00000, 927.00000, 1.50909, 0.00610, -0.09155, -102.55700, 13.90350, -10713, 1834.00000, -194.00000, 919.00000, 1.50909, -0.11597, -0.03052, -100.76300, 12.40850, 10753, 1833.00000, -197.00000, 924.00000, 1.44806, 0.00610, 0.03052, -101.66000, 13.00650, -410793, 1832.00000, -195.00000, 930.00000, 1.44806, 0.06714, 0.09155, -101.06200, 13.15600, -410833, 1830.00000, -191.00000, 933.00000, 1.38702, 0.18921, 0.03052, -103.30450, 13.60450, -410946, 1834.00000, -197.00000, 924.00000, 1.44806, -0.11597, -0.03052, -103.30450, 13.60450, 10986, 1837.00000, -192.00000, 928.00000, 1.38702, 0.18921, 0.15259, -103.00550, 13.90350, -411026, 1834.00000, -192.00000, 929.00000, 1.38702, 0.00610, 0.09155, -102.70650, 12.70750, -411066, 1831.00000, -195.00000, 928.00000, 1.44806, 0.12817, 0.09155, -102.70650, 12.70750, -411106, 1830.00000, -193.00000, 926.00000, 1.50909, 0.06714, 0.03052, -101.06200, 13.15600, -411173, 1836.00000, -196.00000, 924.00000, 1.50909, 0.00610, 0.03052, -99.11850, 14.50150, -5111213, 1834.00000, -194.00000, 926.00000, 1.57013, -0.05493, -0.03052, -99.11850, 14.50150, -11253, 1834.00000, -191.00000, 924.00000, 1.32599, 0.31128, 0.15259, -99.11850, 14.50150, -5111293, 1831.00000, -198.00000, 930.00000, 1.44806, 0.12817, 0.03052, -101.95900, 13.00650, -43.20550
10543, 1835.00000, -196.00000, 926.00000, 1.50909, -0.05493, -0.03052, -102.40750, 13.00650, 10583, 1833.00000, -197.00000, 929.00000, 1.38702, 0.25024, 0.09155, -102.40750, 13.00650, -410673, 1827.00000, -195.00000, 927.00000, 1.50909, 0.00610, -0.09155, -102.55700, 13.90350, -10713, 1834.00000, -194.00000, 919.00000, 1.50909, -0.11597, -0.03052, -100.76300, 12.40850, 10753, 1833.00000, -197.00000, 924.00000, 1.44806, 0.00610, 0.03052, -101.66000, 13.00650, -410793, 1832.00000, -195.00000, 930.00000, 1.44806, 0.06714, 0.09155, -101.06200, 13.15600, -410833, 1830.00000, -191.00000, 933.00000, 1.38702, 0.18921, 0.03052, -103.30450, 13.60450, -410946, 1834.00000, -197.00000, 924.00000, 1.44806, -0.11597, -0.03052, -103.30450, 13.60450, 10986, 1837.00000, -192.00000, 928.00000, 1.38702, 0.18921, 0.15259, -103.00550, 13.90350, -411026, 1834.00000, -192.00000, 929.00000, 1.38702, 0.00610, 0.09155, -102.70650, 12.70750, -411066, 1831.00000, -195.00000, 928.00000, 1.44806, 0.12817, 0.09155, -102.70650, 12.70750, -411106, 1830.00000, -193.00000, 926.00000, 1.50909, 0.06714, 0.03052, -101.06200, 13.15600, -411173, 1836.00000, -196.00000, 924.00000, 1.50909, 0.00610, 0.03052, -99.11850, 14.50150, -5111213, 1834.00000, -194.00000, 926.00000, 1.57013, -0.05493, -0.03052, -99.11850, 14.50150, -11253, 1834.00000, -191.00000, 924.00000, 1.32599, 0.31128, 0.15259, -99.11850, 14.50150, -5111293, 1831.00000, -198.00000, 930.00000, 1.44806, 0.12817, 0.03052, -101.95900, 13.00650, -43.20550
10583, 1833.00000, -197.00000, 929.00000, 1.38702, 0.25024, 0.09155, -102.40750, 13.00650, -410673, 1827.00000, -195.00000, 927.00000, 1.50909, 0.00610, -0.09155, -102.55700, 13.90350, -10713, 1834.00000, -194.00000, 919.00000, 1.50909, -0.11597, -0.03052, -100.76300, 12.40850, 10753, 1833.00000, -197.00000, 924.00000, 1.44806, 0.00610, 0.03052, -101.66000, 13.00650, -410793, 1832.00000, -195.00000, 930.00000, 1.44806, 0.06714, 0.09155, -101.06200, 13.15600, -410833, 1830.00000, -191.00000, 933.00000, 1.38702, 0.18921, 0.03052, -103.30450, 13.60450, -410946, 1834.00000, -197.00000, 924.00000, 1.44806, -0.11597, -0.03052, -103.30450, 13.60450, 10986, 1837.00000, -192.00000, 928.00000, 1.38702, 0.18921, 0.15259, -103.00550, 13.90350, -411026, 1834.00000, -192.00000, 929.00000, 1.38702, 0.00610, 0.09155, -102.70650, 12.70750, -411066, 1831.00000, -195.00000, 928.00000, 1.44806, 0.12817, 0.09155, -102.70650, 12.70750, -411106, 1830.00000, -193.00000, 926.00000, 1.50909, 0.06714, 0.03052, -101.06200, 13.15600, -411173, 1836.00000, -196.00000, 924.00000, 1.50909, 0.00610, 0.03052, -99.11850, 14.50150, -5111213, 1834.00000, -194.00000, 926.00000, 1.57013, -0.05493, -0.03052, -99.11850, 14.50150, -11253, 1834.00000, -191.00000, 924.00000, 1.32599, 0.31128, 0.15259, -99.11850, 14.50150, -5111293, 1831.00000, -198.00000, 930.00000, 1.44806, 0.12817, 0.03052, -101.95900, 13.00650, -43.20550
10673, 1827.00000, -195.00000, 927.00000, 1.50909, 0.00610, -0.09155, -102.55700, 13.90350, -10713, 1834.00000, -194.00000, 919.00000, 1.50909, -0.11597, -0.03052, -100.76300, 12.40850, 10753, 1833.00000, -197.00000, 924.00000, 1.44806, 0.00610, 0.03052, -101.66000, 13.00650, -410793, 1832.00000, -195.00000, 930.00000, 1.44806, 0.06714, 0.09155, -101.06200, 13.15600, -410833, 1830.00000, -191.00000, 933.00000, 1.38702, 0.18921, 0.03052, -103.30450, 13.60450, -410946, 1834.00000, -197.00000, 924.00000, 1.44806, -0.11597, -0.03052, -103.30450, 13.60450, 10986, 1837.00000, -192.00000, 928.00000, 1.38702, 0.18921, 0.15259, -103.00550, 13.90350, -411026, 1834.00000, -192.00000, 929.00000, 1.38702, 0.00610, 0.09155, -102.70650, 12.70750, -411066, 1831.00000, -195.00000, 928.00000, 1.44806, 0.12817, 0.09155, -102.70650, 12.70750, -411106, 1830.00000, -193.00000, 926.00000, 1.50909, 0.06714, 0.03052, -101.06200, 13.15600, -411173, 1836.00000, -196.00000, 924.00000, 1.50909, 0.00610, 0.03052, -99.11850, 14.50150, -5111213, 1834.00000, -194.00000, 926.00000, 1.57013, -0.05493, -0.03052, -99.11850, 14.50150, -11253, 1834.00000, -191.00000, 924.00000, 1.32599, 0.31128, 0.15259, -99.11850, 14.50150, -5111293, 1831.00000, -198.00000, 930.00000, 1.44806, 0.12817, 0.03052, -101.95900, 13.00650, -43.20550
10713, 1834.00000, -194.00000, 919.00000, 1.50909, -0.11597, -0.03052, -100.76300, 12.40850, 10753, 1833.00000, -197.00000, 924.00000, 1.44806, 0.00610, 0.03052, -101.66000, 13.00650, -410793, 1832.00000, -195.00000, 930.00000, 1.44806, 0.06714, 0.09155, -101.06200, 13.15600, -410833, 1830.00000, -191.00000, 933.00000, 1.38702, 0.18921, 0.03052, -103.30450, 13.60450, -410946, 1834.00000, -197.00000, 924.00000, 1.44806, -0.11597, -0.03052, -103.30450, 13.60450, 10986, 1837.00000, -192.00000, 928.00000, 1.38702, 0.18921, 0.15259, -103.00550, 13.90350, -411026, 1834.00000, -192.00000, 929.00000, 1.38702, 0.00610, 0.09155, -102.70650, 12.70750, -411066, 1831.00000, -195.00000, 928.00000, 1.44806, 0.12817, 0.09155, -102.70650, 12.70750, -411106, 1830.00000, -193.00000, 926.00000, 1.50909, 0.06714, 0.03052, -101.06200, 13.15600, -411173, 1836.00000, -196.00000, 924.00000, 1.50909, 0.00610, 0.03052, -99.11850, 14.50150, -5111213, 1834.00000, -194.00000, 926.00000, 1.57013, -0.05493, -0.03052, -99.11850, 14.50150, -11253, 1834.00000, -191.00000, 924.00000, 1.32599, 0.31128, 0.15259, -99.11850, 14.50150, -5111293, 1831.00000, -198.00000, 930.00000, 1.44806, 0.12817, 0.03052, -101.95900, 13.00650, -43.20550
10753, 1833.00000, -197.00000, 924.00000, 1.44806, 0.00610, 0.03052, -101.66000, 13.00650, -410793, 1832.00000, -195.00000, 930.00000, 1.44806, 0.06714, 0.09155, -101.06200, 13.15600, -410833, 1830.00000, -191.00000, 933.00000, 1.38702, 0.18921, 0.03052, -103.30450, 13.60450, -410946, 1834.00000, -197.00000, 924.00000, 1.44806, -0.11597, -0.03052, -103.30450, 13.60450, 10986, 1837.00000, -192.00000, 928.00000, 1.38702, 0.18921, 0.15259, -103.00550, 13.90350, -411026, 1834.00000, -192.00000, 929.00000, 1.38702, 0.00610, 0.09155, -102.70650, 12.70750, -411066, 1831.00000, -195.00000, 928.00000, 1.44806, 0.12817, 0.09155, -102.70650, 12.70750, -411106, 1830.00000, -193.00000, 926.00000, 1.50909, 0.06714, 0.03052, -101.06200, 13.15600, -411173, 1836.00000, -196.00000, 924.00000, 1.50909, 0.00610, 0.03052, -99.11850, 14.50150, -5111213, 1834.00000, -194.00000, 926.00000, 1.57013, -0.05493, -0.03052, -99.11850, 14.50150, -11253, 1834.00000, -191.00000, 924.00000, 1.32599, 0.31128, 0.15259, -99.11850, 14.50150, -5111293, 1831.00000, -198.00000, 930.00000, 1.44806, 0.12817, 0.03052, -101.95900, 13.00650, -43.20550
10793, 1832.00000, -195.00000, 930.00000, 1.44806, 0.06714, 0.09155, -101.06200, 13.15600, -410833, 1830.00000, -191.00000, 933.00000, 1.38702, 0.18921, 0.03052, -103.30450, 13.60450, -410946, 1834.00000, -197.00000, 924.00000, 1.44806, -0.11597, -0.03052, -103.30450, 13.60450, 10986, 1837.00000, -192.00000, 928.00000, 1.38702, 0.18921, 0.15259, -103.00550, 13.90350, -411026, 1834.00000, -192.00000, 929.00000, 1.38702, 0.00610, 0.09155, -102.70650, 12.70750, -411066, 1831.00000, -195.00000, 928.00000, 1.44806, 0.12817, 0.09155, -102.70650, 12.70750, -411106, 1830.00000, -193.00000, 926.00000, 1.50909, 0.06714, 0.03052, -101.06200, 13.15600, -411173, 1836.00000, -196.00000, 924.00000, 1.50909, 0.00610, 0.03052, -99.11850, 14.50150, -5111213, 1834.00000, -194.00000, 926.00000, 1.57013, -0.05493, -0.03052, -99.11850, 14.50150, -11253, 1834.00000, -191.00000, 924.00000, 1.32599, 0.31128, 0.15259, -99.11850, 14.50150, -5111293, 1831.00000, -198.00000, 930.00000, 1.44806, 0.12817, 0.03052, -101.95900, 13.00650, -43.20550
10833, 1830.00000, -191.00000, 933.00000, 1.38702, 0.18921, 0.03052, -103.30450, 13.60450, -410946, 1834.00000, -197.00000, 924.00000, 1.44806, -0.11597, -0.03052, -103.30450, 13.60450, 10986, 1837.00000, -192.00000, 928.00000, 1.38702, 0.18921, 0.15259, -103.00550, 13.90350, -411026, 1834.00000, -192.00000, 929.00000, 1.38702, 0.00610, 0.09155, -102.70650, 12.70750, -411066, 1831.00000, -195.00000, 928.00000, 1.44806, 0.12817, 0.09155, -102.70650, 12.70750, -411106, 1830.00000, -193.00000, 926.00000, 1.50909, 0.06714, 0.03052, -101.06200, 13.15600, -411173, 1836.00000, -196.00000, 924.00000, 1.50909, 0.00610, 0.03052, -99.11850, 14.50150, -5111213, 1834.00000, -194.00000, 926.00000, 1.57013, -0.05493, -0.03052, -99.11850, 14.50150, -11253, 1834.00000, -191.00000, 924.00000, 1.32599, 0.31128, 0.15259, -99.11850, 14.50150, -5111293, 1831.00000, -198.00000, 930.00000, 1.44806, 0.12817, 0.03052, -101.95900, 13.00650, -43.20550
10946, 1834.00000, -197.00000, 924.00000, 1.44806, -0.11597, -0.03052, -103.30450, 13.60450, 10986, 1837.00000, -192.00000, 928.00000, 1.38702, 0.18921, 0.15259, -103.00550, 13.90350, -411026, 1834.00000, -192.00000, 929.00000, 1.38702, 0.00610, 0.09155, -102.70650, 12.70750, -411066, 1831.00000, -195.00000, 928.00000, 1.44806, 0.12817, 0.09155, -102.70650, 12.70750, -411106, 1830.00000, -193.00000, 926.00000, 1.50909, 0.06714, 0.03052, -101.06200, 13.15600, -411173, 1836.00000, -196.00000, 924.00000, 1.50909, 0.00610, 0.03052, -99.11850, 14.50150, -5111213, 1834.00000, -194.00000, 926.00000, 1.57013, -0.05493, -0.03052, -99.11850, 14.50150, -11253, 1834.00000, -191.00000, 924.00000, 1.32599, 0.31128, 0.15259, -99.11850, 14.50150, -5111293, 1831.00000, -198.00000, 930.00000, 1.44806, 0.12817, 0.03052, -101.95900, 13.00650, -43.20550
10986, 1837.00000, -192.00000, 928.00000, 1.38702, 0.18921, 0.15259, -103.00550, 13.90350, -411026, 1834.00000, -192.00000, 929.00000, 1.38702, 0.00610, 0.09155, -102.70650, 12.70750, -411066, 1831.00000, -195.00000, 928.00000, 1.44806, 0.12817, 0.09155, -102.70650, 12.70750, -411106, 1830.00000, -193.00000, 926.00000, 1.50909, 0.06714, 0.03052, -101.06200, 13.15600, -411173, 1836.00000, -196.00000, 924.00000, 1.50909, 0.00610, 0.03052, -99.11850, 14.50150, -5111213, 1834.00000, -194.00000, 926.00000, 1.57013, -0.05493, -0.03052, -99.11850, 14.50150, -11253, 1834.00000, -191.00000, 924.00000, 1.32599, 0.31128, 0.15259, -99.11850, 14.50150, -5111293, 1831.00000, -198.00000, 930.00000, 1.44806, 0.12817, 0.03052, -101.95900, 13.00650, -43.20550
11026, 1834.00000, -192.00000, 929.00000, 1.38702, 0.00610, 0.09155, -102.70650, 12.70750, -411066, 1831.00000, -195.00000, 928.00000, 1.44806, 0.12817, 0.09155, -102.70650, 12.70750, -411106, 1830.00000, -193.00000, 926.00000, 1.50909, 0.06714, 0.03052, -101.06200, 13.15600, -411173, 1836.00000, -196.00000, 924.00000, 1.50909, 0.00610, 0.03052, -99.11850, 14.50150, -5111213, 1834.00000, -194.00000, 926.00000, 1.57013, -0.05493, -0.03052, -99.11850, 14.50150, -11253, 1834.00000, -191.00000, 924.00000, 1.32599, 0.31128, 0.15259, -99.11850, 14.50150, -5111293, 1831.00000, -198.00000, 930.00000, 1.44806, 0.12817, 0.03052, -101.95900, 13.00650, -43.20550
11066, 1831.00000, -195.00000, 928.00000, 1.44806, 0.12817, 0.09155, -102.70650, 12.70750, -411106, 1830.00000, -193.00000, 926.00000, 1.50909, 0.06714, 0.03052, -101.06200, 13.15600, -411173, 1836.00000, -196.00000, 924.00000, 1.50909, 0.00610, 0.03052, -99.11850, 14.50150, -5111213, 1834.00000, -194.00000, 926.00000, 1.57013, -0.05493, -0.03052, -99.11850, 14.50150, -11253, 1834.00000, -191.00000, 924.00000, 1.32599, 0.31128, 0.15259, -99.11850, 14.50150, -5111293, 1831.00000, -198.00000, 930.00000, 1.44806, 0.12817, 0.03052, -101.95900, 13.00650, -43.20550
11106, 1830.00000, -193.00000, 926.00000, 1.50909, 0.06714, 0.03052, -101.06200, 13.15600, -411173, 1836.00000, -196.00000, 924.00000, 1.50909, 0.00610, 0.03052, -99.11850, 14.50150, -5111213, 1834.00000, -194.00000, 926.00000, 1.57013, -0.05493, -0.03052, -99.11850, 14.50150, -11253, 1834.00000, -191.00000, 924.00000, 1.32599, 0.31128, 0.15259, -99.11850, 14.50150, -5111293, 1831.00000, -198.00000, 930.00000, 1.44806, 0.12817, 0.03052, -101.95900, 13.00650, -43.20550
11173, 1836.00000, -196.00000, 924.00000, 1.50909, 0.00610, 0.03052, -99.11850, 14.50150, -5111213, 1834.00000, -194.00000, 926.00000, 1.57013, -0.05493, -0.03052, -99.11850, 14.50150, -11253, 1834.00000, -191.00000, 924.00000, 1.32599, 0.31128, 0.15259, -99.11850, 14.50150, -5111293, 1831.00000, -198.00000, 930.00000, 1.44806, 0.12817, 0.03052, -101.95900, 13.00650, -43.20550
11213, 1834.00000, -194.00000, 926.00000, 1.57013, -0.05493, -0.03052, -99.11850, 14.50150, -11253, 1834.00000, -191.00000, 924.00000, 1.32599, 0.31128, 0.15259, -99.11850, 14.50150, -5111293, 1831.00000, -198.00000, 930.00000, 1.44806, 0.12817, 0.03052, -101.95900, 13.00650, -43.20550
11253, 1834.00000, -191.00000, 924.00000, 1.32599, 0.31128, 0.15259, -99.11850, 14.50150, -5111293, 1831.00000, -198.00000, 930.00000, 1.44806, 0.12817, 0.03052, -101.95900, 13.00650, -43.20550
11293, 1831.00000, -198.00000, 930.00000, 1.44806, 0.12817, 0.03052, -101.95900, 13.00650, -43.20550
11409, 1836.00000, -195.00000, 923.00000, 1.38702, 0.37231, 0.09155, -101.66000, 13.75400, -411449, 1834.00000, -195.00000, 924.00000, 1.44806, 0.37231, 0.15259, -101.66000, 13.75400, -411489, 1831.00000, -193.00000, 933.00000, 1.44806, 0.00610, 0.03052, -102.70650, 13.00650, -411529, 1833.00000, -195.00000, 934.00000, 1.44806, 0.00610, 0.03052, -102.25800, 12.85700, -411569, 1832.00000, -193.00000, 922.00000, 1.50909, 0.06714, -0.03052, -102.25800, 12.85700, -11609, 1835.00000, -192.00000, 924.00000, 1.44806, 0.06714, -0.03052, -102.25800, 12.85700, -11649, 1836.00000, -194.00000, 925.00000, 1.38702, 0.12817, 0.03052, -102.25800, 11.36200, -411689, 1832.00000, -192.00000, 932.00000, 1.50909, 0.00610, -0.03052, -102.55700, 10.91350, -11729, 1830.00000, -193.00000, 930.00000, 1.44806, 0.06714, 0.03052, -101.95900, 11.51150, -411769, 1834.00000, -196.00000, 927.00000, 1.44806, 0.06714, 0.09155, -103.90250, 11.96000, -411809, 1834.00000, -193.00000, 923.00000, 1.38702, -0.05493, -0.09155, -103.90250, 11.96000, 11849, 1835.00000, -192.00000, 924.00000, 1.38702, 0.06714, 0.09155, -101.80950, 11.66100, -411889, 1838.00000, -193.00000, 924.00000, 1.44806, 0.06714, 0.03052, -101.80950, 11.66100, -411936, 1830.00000, -190.00000, 928.00000, 1.44806, 0.18921, 0.09155, -101.80950, 11.66100, -411976, 1829.00000, -194.00000, 930.00000, 1.44806, 0.06714, 0.09155, -102.55700, 12.40850, -412016, 1832.00000, -193.00000, 926.00000, 1.50909, 0.00610, -0.09155, -102.55700, 12.40850, -12056, 1838.00000, -192.00000, 920.00000, 1.50909, -0.11597, -0.03052, -102.55700, 12.40850, 12096, 1835.00000, -192.00000, 924.00000, 1.44806, 0.06714, 0.03052, -100.46400, 12.40850, -412136, 1833.00000, -194.00000, 929.00000, 1.38702, 0.12817, 0.03052, -101.51050, 13.60450, -412185, 1829.00000, -196.00000, 928.00000, 1.50909, 0.00610, -0.03052, -101.95900, 12.70750, -12225, 1833.00000, -196.00000, 926.00000, 1.50909, -0.05493, -0.09155, -101.95900, 12.70750, 12265, 1836.00000, -192.00000, 922.00000, 1.38702, 0.00610, -0.03052, -102.55700, 12.85700, -12305, 1838.00000, -190.00000, 925.00000, 1.44806, 0.06714, 0.03052, -103.60350, 12.40850, -412345, 1831.00000, -196.00000, 926.00000, 1.44806, 0.12817, 0.03052, -103.60350, 12.40850, -412385, 1832.00000, -191.00000, 926.00000, 1.44806, 0.00610, -0.03052, -101.36100, 14.50150, -45.74700
11449, 1834.00000, -195.00000, 924.00000, 1.44806, 0.37231, 0.15259, -101.66000, 13.75400, -411489, 1831.00000, -193.00000, 933.00000, 1.44806, 0.00610, 0.03052, -102.70650, 13.00650, -411529, 1833.00000, -195.00000, 934.00000, 1.44806, 0.00610, 0.03052, -102.25800, 12.85700, -411569, 1832.00000, -193.00000, 922.00000, 1.50909, 0.06714, -0.03052, -102.25800, 12.85700, -11609, 1835.00000, -192.00000, 924.00000, 1.44806, 0.06714, -0.03052, -102.25800, 12.85700, -11649, 1836.00000, -194.00000, 925.00000, 1.38702, 0.12817, 0.03052, -102.25800, 11.36200, -411689, 1832.00000, -192.00000, 932.00000, 1.50909, 0.00610, -0.03052, -102.55700, 10.91350, -11729, 1830.00000, -193.00000, 930.00000, 1.44806, 0.06714, 0.03052, -101.95900, 11.51150, -411769, 1834.00000, -196.00000, 927.00000, 1.44806, 0.06714, 0.09155, -103.90250, 11.96000, -411809, 1834.00000, -193.00000, 923.00000, 1.38702, -0.05493, -0.09155, -103.90250, 11.96000, 11849, 1835.00000, -192.00000, 924.00000, 1.38702, 0.06714, 0.09155, -101.80950, 11.66100, -411889, 1838.00000, -193.00000, 924.00000, 1.44806, 0.06714, 0.03052, -101.80950, 11.66100, -411936, 1830.00000, -190.00000, 928.00000, 1.44806, 0.18921, 0.09155, -101.80950, 11.66100, -411976, 1829.00000, -194.00000, 930.00000, 1.44806, 0.06714, 0.09155, -102.55700, 12.40850, -412016, 1832.00000, -193.00000, 926.00000, 1.50909, 0.00610, -0.09155, -102.55700, 12.40850, -12056, 1838.00000, -192.00000, 920.00000, 1.50909, -0.11597, -0.03052, -102.55700, 12.40850, 12096, 1835.00000, -192.00000, 924.00000, 1.44806, 0.06714, 0.03052, -100.46400, 12.40850, -412136, 1833.00000, -194.00000, 929.00000, 1.38702, 0.12817, 0.03052, -101.51050, 13.60450, -412185, 1829.00000, -196.00000, 928.00000, 1.50909, 0.00610, -0.03052, -101.95900, 12.70750, -12225, 1833.00000, -196.00000, 926.00000, 1.50909, -0.05493, -0.09155, -101.95900, 12.70750, 12265, 1836.00000, -192.00000, 922.00000, 1.38702, 0.00610, -0.03052, -102.55700, 12.85700, -12305, 1838.00000, -190.00000, 925.00000, 1.44806, 0.06714, 0.03052, -103.60350, 12.40850, -412345, 1831.00000, -196.00000, 926.00000, 1.44806, 0.12817, 0.03052, -103.60350, 12.40850, -412385, 1832.00000, -191.00000, 926.00000, 1.44806, 0.00610, -0.03052, -101.36100, 14.50150, -45.74700
11489, 1831.00000, -193.00000, 933.00000, 1.44806, 0.00610, 0.03052, -102.70650, 13.00650, -411529, 1833.00000, -195.00000, 934.00000, 1.44806, 0.00610, 0.03052, -102.25800, 12.85700, -411569, 1832.00000, -193.00000, 922.00000, 1.50909, 0.06714, -0.03052, -102.25800, 12.85700, -11609, 1835.00000, -192.00000, 924.00000, 1.44806, 0.06714, -0.03052, -102.25800, 12.85700, -11649, 1836.00000, -194.00000, 925.00000, 1.38702, 0.12817, 0.03052, -102.25800, 11.36200, -411689, 1832.00000, -192.00000, 932.00000, 1.50909, 0.00610, -0.03052, -102.55700, 10.91350, -11729, 1830.00000, -193.00000, 930.00000, 1.44806, 0.06714, 0.03052, -101.95900, 11.51150, -411769, 1834.00000, -196.00000, 927.00000, 1.44806, 0.06714, 0.09155, -103.90250, 11.96000, -411809, 1834.00000, -193.00000, 923.00000, 1.38702, -0.05493, -0.09155, -103.90250, 11.96000, 11849, 1835.00000, -192.00000, 924.00000, 1.38702, 0.06714, 0.09155, -101.80950, 11.66100, -411889, 1838.00000, -193.00000, 924.00000, 1.44806, 0.06714, 0.03052, -101.80950, 11.66100, -411936, 1830.00000, -190.00000, 928.00000, 1.44806, 0.18921, 0.09155, -101.80950, 11.66100, -411976, 1829.00000, -194.00000, 930.00000, 1.44806, 0.06714, 0.09155, -102.55700, 12.40850, -412016, 1832.00000, -193.00000, 926.00000, 1.50909, 0.00610, -0.09155, -102.55700, 12.40850, -12056, 1838.00000, -192.00000, 920.00000, 1.50909, -0.11597, -0.03052, -102.55700, 12.40850, 12096, 1835.00000, -192.00000, 924.00000, 1.44806, 0.06714, 0.03052, -100.46400, 12.40850, -412136, 1833.00000, -194.00000, 929.00000, 1.38702, 0.12817, 0.03052, -101.51050, 13.60450, -412185, 1829.00000, -196.00000, 928.00000, 1.50909, 0.00610, -0.03052, -101.95900, 12.70750, -12225, 1833.00000, -196.00000, 926.00000, 1.50909, -0.05493, -0.09155, -101.95900, 12.70750, 12265, 1836.00000, -192.00000, 922.00000, 1.38702, 0.00610, -0.03052, -102.55700, 12.85700, -12305, 1838.00000, -190.00000, 925.00000, 1.44806, 0.06714, 0.03052, -103.60350, 12.40850, -412345, 1831.00000, -196.00000, 926.00000, 1.44806, 0.12817, 0.03052, -103.60350, 12.40850, -412385, 1832.00000, -191.00000, 926.00000, 1.44806, 0.00610, -0.03052, -101.36100, 14.50150, -45.74700
11529, 1833.00000, -195.00000, 934.00000, 1.44806, 0.00610, 0.03052, -102.25800, 12.85700, -411569, 1832.00000, -193.00000, 922.00000, 1.50909, 0.06714, -0.03052, -102.25800, 12.85700, -11609, 1835.00000, -192.00000, 924.00000, 1.44806, 0.06714, -0.03052, -102.25800, 12.85700, -11649, 1836.00000, -194.00000, 925.00000, 1.38702, 0.12817, 0.03052, -102.25800, 11.36200, -411689, 1832.00000, -192.00000, 932.00000, 1.50909, 0.00610, -0.03052, -102.55700, 10.91350, -11729, 1830.00000, -193.00000, 930.00000, 1.44806, 0.06714, 0.03052, -101.95900, 11.51150, -411769, 1834.00000, -196.00000, 927.00000, 1.44806, 0.06714, 0.09155, -103.90250, 11.96000, -411809, 1834.00000, -193.00000, 923.00000, 1.38702, -0.05493, -0.09155, -103.90250, 11.96000, 11849, 1835.00000, -192.00000, 924.00000, 1.38702, 0.06714, 0.09155, -101.80950, 11.66100, -411889, 1838.00000, -193.00000, 924.00000, 1.44806, 0.06714, 0.03052, -101.80950, 11.66100, -411936, 1830.00000, -190.00000, 928.00000, 1.44806, 0.18921, 0.09155, -101.80950, 11.66100, -411976, 1829.00000, -194.00000, 930.00000, 1.44806, 0.06714, 0.09155, -102.55700, 12.40850, -412016, 1832.00000, -193.00000, 926.00000, 1.50909, 0.00610, -0.09155, -102.55700, 12.40850, -12056, 1838.00000, -192.00000, 920.00000, 1.50909, -0.11597, -0.03052, -102.55700, 12.40850, 12096, 1835.00000, -192.00000, 924.00000, 1.44806, 0.06714, 0.03052, -100.46400, 12.40850, -412136, 1833.00000, -194.00000, 929.00000, 1.38702, 0.12817, 0.03052, -101.51050, 13.60450, -412185, 1829.00000, -196.00000, 928.00000, 1.50909, 0.00610, -0.03052, -101.95900, 12.70750, -12225, 1833.00000, -196.00000, 926.00000, 1.50909, -0.05493, -0.09155, -101.95900, 12.70750, 12265, 1836.00000, -192.00000, 922.00000, 1.38702, 0.00610, -0.03052, -102.55700, 12.85700, -12305, 1838.00000, -190.00000, 925.00000, 1.44806, 0.06714, 0.03052, -103.60350, 12.40850, -412345, 1831.00000, -196.00000, 926.00000, 1.44806, 0.12817, 0.03052, -103.60350, 12.40850, -412385, 1832.00000, -191.00000, 926.00000, 1.44806, 0.00610, -0.03052, -101.36100, 14.50150, -45.74700
11569, 1832.00000, -193.00000, 922.00000, 1.50909, 0.06714, -0.03052, -102.25800, 12.85700, -11609, 1835.00000, -192.00000, 924.00000, 1.44806, 0.06714, -0.03052, -102.25800, 12.85700, -11649, 1836.00000, -194.00000, 925.00000, 1.38702, 0.12817, 0.03052, -102.25800, 11.36200, -411689, 1832.00000, -192.00000, 932.00000, 1.50909, 0.00610, -0.03052, -102.55700, 10.91350, -11729, 1830.00000, -193.00000, 930.00000, 1.44806, 0.06714, 0.03052, -101.95900, 11.51150, -411769, 1834.00000, -196.00000, 927.00000, 1.44806, 0.06714, 0.09155, -103.90250, 11.96000, -411809, 1834.00000, -193.00000, 923.00000, 1.38702, -0.05493, -0.09155, -103.90250, 11.96000, 11849, 1835.00000, -192.00000, 924.00000, 1.38702, 0.06714, 0.09155, -101.80950, 11.66100, -411889, 1838.00000, -193.00000, 924.00000, 1.44806, 0.06714, 0.03052, -101.80950, 11.66100, -411936, 1830.00000, -190.00000, 928.00000, 1.44806, 0.18921, 0.09155, -101.80950, 11.66100, -411976, 1829.00000, -194.00000, 930.00000, 1.44806, 0.06714, 0.09155, -102.55700, 12.40850, -412016, 1832.00000, -193.00000, 926.00000, 1.50909, 0.00610, -0.09155, -102.55700, 12.40850, -12056, 1838.00000, -192.00000, 920.00000, 1.50909, -0.11597, -0.03052, -102.55700, 12.40850, 12096, 1835.00000, -192.00000, 924.00000, 1.44806, 0.06714, 0.03052, -100.46400, 12.40850, -412136, 1833.00000, -194.00000, 929.00000, 1.38702, 0.12817, 0.03052, -101.51050, 13.60450, -412185, 1829.00000, -196.00000, 928.00000, 1.50909, 0.00610, -0.03052, -101.95900, 12.70750, -12225, 1833.00000, -196.00000, 926.00000, 1.50909, -0.05493, -0.09155, -101.95900, 12.70750, 12265, 1836.00000, -192.00000, 922.00000, 1.38702, 0.00610, -0.03052, -102.55700, 12.85700, -12305, 1838.00000, -190.00000, 925.00000, 1.44806, 0.06714, 0.03052, -103.60350, 12.40850, -412345, 1831.00000, -196.00000, 926.00000, 1.44806, 0.12817, 0.03052, -103.60350, 12.40850, -412385, 1832.00000, -191.00000, 926.00000, 1.44806, 0.00610, -0.03052, -101.36100, 14.50150, -45.74700
11609, 1835.00000, -192.00000, 924.00000, 1.44806, 0.06714, -0.03052, -102.25800, 12.85700, -11649, 1836.00000, -194.00000, 925.00000, 1.38702, 0.12817, 0.03052, -102.25800, 11.36200, -411689, 1832.00000, -192.00000, 932.00000, 1.50909, 0.00610, -0.03052, -102.55700, 10.91350, -11729, 1830.00000, -193.00000, 930.00000, 1.44806, 0.06714, 0.03052, -101.95900, 11.51150, -411769, 1834.00000, -196.00000, 927.00000, 1.44806, 0.06714, 0.09155, -103.90250, 11.96000, -411809, 1834.00000, -193.00000, 923.00000, 1.38702, -0.05493, -0.09155, -103.90250, 11.96000, 11849, 1835.00000, -192.00000, 924.00000, 1.38702, 0.06714, 0.09155, -101.80950, 11.66100, -411889, 1838.00000, -193.00000, 924.00000, 1.44806, 0.06714, 0.03052, -101.80950, 11.66100, -411936, 1830.00000, -190.00000, 928.00000, 1.44806, 0.18921, 0.09155, -101.80950, 11.66100, -411976, 1829.00000, -194.00000, 930.00000, 1.44806, 0.06714, 0.09155, -102.55700, 12.40850, -412016, 1832.00000, -193.00000, 926.00000, 1.50909, 0.00610, -0.09155, -102.55700, 12.40850, -12056, 1838.00000, -192.00000, 920.00000, 1.50909, -0.11597, -0.03052, -102.55700, 12.40850, 12096, 1835.00000, -192.00000, 924.00000, 1.44806, 0.06714, 0.03052, -100.46400, 12.40850, -412136, 1833.00000, -194.00000, 929.00000, 1.38702, 0.12817, 0.03052, -101.51050, 13.60450, -412185, 1829.00000, -196.00000, 928.00000, 1.50909, 0.00610, -0.03052, -101.95900, 12.70750, -12225, 1833.00000, -196.00000, 926.00000, 1.50909, -0.05493, -0.09155, -101.95900, 12.70750, 12265, 1836.00000, -192.00000, 922.00000, 1.38702, 0.00610, -0.03052, -102.55700, 12.85700, -12305, 1838.00000, -190.00000, 925.00000, 1.44806, 0.06714, 0.03052, -103.60350, 12.40850, -412345, 1831.00000, -196.00000, 926.00000, 1.44806, 0.12817, 0.03052, -103.60350, 12.40850, -412385, 1832.00000, -191.00000, 926.00000, 1.44806, 0.00610, -0.03052, -101.36100, 14.50150, -45.74700
11649, 1836.00000, -194.00000, 925.00000, 1.38702, 0.12817, 0.03052, -102.25800, 11.36200, -411689, 1832.00000, -192.00000, 932.00000, 1.50909, 0.00610, -0.03052, -102.55700, 10.91350, -11729, 1830.00000, -193.00000, 930.00000, 1.44806, 0.06714, 0.03052, -101.95900, 11.51150, -411769, 1834.00000, -196.00000, 927.00000, 1.44806, 0.06714, 0.09155, -103.90250, 11.96000, -411809, 1834.00000, -193.00000, 923.00000, 1.38702, -0.05493, -0.09155, -103.90250, 11.96000, 11849, 1835.00000, -192.00000, 924.00000, 1.38702, 0.06714, 0.09155, -101.80950, 11.66100, -411889, 1838.00000, -193.00000, 924.00000, 1.44806, 0.06714, 0.03052, -101.80950, 11.66100, -411936, 1830.00000, -190.00000, 928.00000, 1.44806, 0.18921, 0.09155, -101.80950, 11.66100, -411976, 1829.00000, -194.00000, 930.00000, 1.44806, 0.06714, 0.09155, -102.55700, 12.40850, -412016, 1832.00000, -193.00000, 926.00000, 1.50909, 0.00610, -0.09155, -102.55700, 12.40850, -12056, 1838.00000, -192.00000, 920.00000, 1.50909, -0.11597, -0.03052, -102.55700, 12.40850, 12096, 1835.00000, -192.00000, 924.00000, 1.44806, 0.06714, 0.03052, -100.46400, 12.40850, -412136, 1833.00000, -194.00000, 929.00000, 1.38702, 0.12817, 0.03052, -101.51050, 13.60450, -412185, 1829.00000, -196.00000, 928.00000, 1.50909, 0.00610, -0.03052, -101.95900, 12.70750, -12225, 1833.00000, -196.00000, 926.00000, 1.50909, -0.05493, -0.09155, -101.95900, 12.70750, 12265, 1836.00000, -192.00000, 922.00000, 1.38702, 0.00610, -0.03052, -102.55700, 12.85700, -12305, 1838.00000, -190.00000, 925.00000, 1.44806, 0.06714, 0.03052, -103.60350, 12.40850, -412345, 1831.00000, -196.00000, 926.00000, 1.44806, 0.12817, 0.03052, -103.60350, 12.40850, -412385, 1832.00000, -191.00000, 926.00000, 1.44806, 0.00610, -0.03052, -101.36100, 14.50150, -45.74700
11689, 1832.00000, -192.00000, 932.00000, 1.50909, 0.00610, -0.03052, -102.55700, 10.91350, -11729, 1830.00000, -193.00000, 930.00000, 1.44806, 0.06714, 0.03052, -101.95900, 11.51150, -411769, 1834.00000, -196.00000, 927.00000, 1.44806, 0.06714, 0.09155, -103.90250, 11.96000, -411809, 1834.00000, -193.00000, 923.00000, 1.38702, -0.05493, -0.09155, -103.90250, 11.96000, 11849, 1835.00000, -192.00000, 924.00000, 1.38702, 0.06714, 0.09155, -101.80950, 11.66100, -411889, 1838.00000, -193.00000, 924.00000, 1.44806, 0.06714, 0.03052, -101.80950, 11.66100, -411936, 1830.00000, -190.00000, 928.00000, 1.44806, 0.18921, 0.09155, -101.80950, 11.66100, -411976, 1829.00000, -194.00000, 930.00000, 1.44806, 0.06714, 0.09155, -102.55700, 12.40850, -412016, 1832.00000, -193.00000, 926.00000, 1.50909, 0.00610, -0.09155, -102.55700, 12.40850, -12056, 1838.00000, -192.00000, 920.00000, 1.50909, -0.11597, -0.03052, -102.55700, 12.40850, 12096, 1835.00000, -192.00000, 924.00000, 1.44806, 0.06714, 0.03052, -100.46400, 12.40850, -412136, 1833.00000, -194.00000, 929.00000, 1.38702, 0.12817, 0.03052, -101.51050, 13.60450, -412185, 1829.00000, -196.00000, 928.00000, 1.50909, 0.00610, -0.03052, -101.95900, 12.70750, -12225, 1833.00000, -196.00000, 926.00000, 1.50909, -0.05493, -0.09155, -101.95900, 12.70750, 12265, 1836.00000, -192.00000, 922.00000, 1.38702, 0.00610, -0.03052, -102.55700, 12.85700, -12305, 1838.00000, -190.00000, 925.00000, 1.44806, 0.06714, 0.03052, -103.60350, 12.40850, -412345, 1831.00000, -196.00000, 926.00000, 1.44806, 0.12817, 0.03052, -103.60350, 12.40850, -412385, 1832.00000, -191.00000, 926.00000, 1.44806, 0.00610, -0.03052, -101.36100, 14.50150, -45.74700
11729, 1830.00000, -193.00000, 930.00000, 1.44806, 0.06714, 0.03052, -101.95900, 11.51150, -411769, 1834.00000, -196.00000, 927.00000, 1.44806, 0.06714, 0.09155, -103.90250, 11.96000, -411809, 1834.00000, -193.00000, 923.00000, 1.38702, -0.05493, -0.09155, -103.90250, 11.96000, 11849, 1835.00000, -192.00000, 924.00000, 1.38702, 0.06714, 0.09155, -101.80950, 11.66100, -411889, 1838.00000, -193.00000, 924.00000, 1.44806, 0.06714, 0.03052, -101.80950, 11.66100, -411936, 1830.00000, -190.00000, 928.00000, 1.44806, 0.18921, 0.09155, -101.80950, 11.66100, -411976, 1829.00000, -194.00000, 930.00000, 1.44806, 0.06714, 0.09155, -102.55700, 12.40850, -412016, 1832.00000, -193.00000, 926.00000, 1.50909, 0.00610, -0.09155, -102.55700, 12.40850, -12056, 1838.00000, -192.00000, 920.00000, 1.50909, -0.11597, -0.03052, -102.55700, 12.40850, 12096, 1835.00000, -192.00000, 924.00000, 1.44806, 0.06714, 0.03052, -100.46400, 12.40850, -412136, 1833.00000, -194.00000, 929.00000, 1.38702, 0.12817, 0.03052, -101.51050, 13.60450, -412185, 1829.00000, -196.00000, 928.00000, 1.50909, 0.00610, -0.03052, -101.95900, 12.70750, -12225, 1833.00000, -196.00000, 926.00000, 1.50909, -0.05493, -0.09155, -101.95900, 12.70750, 12265, 1836.00000, -192.00000, 922.00000, 1.38702, 0.00610, -0.03052, -102.55700, 12.85700, -12305, 1838.00000, -190.00000, 925.00000, 1.44806, 0.06714, 0.03052, -103.60350, 12.40850, -412345, 1831.00000, -196.00000, 926.00000, 1.44806, 0.12817, 0.03052, -103.60350, 12.40850, -412385, 1832.00000, -191.00000, 926.00000, 1.44806, 0.00610, -0.03052, -101.36100, 14.50150, -45.74700
11769, 1834.00000, -196.00000, 927.00000, 1.44806, 0.06714, 0.09155, -103.90250, 11.96000, -411809, 1834.00000, -193.00000, 923.00000, 1.38702, -0.05493, -0.09155, -103.90250, 11.96000, 11849, 1835.00000, -192.00000, 924.00000, 1.38702, 0.06714, 0.09155, -101.80950, 11.66100, -411889, 1838.00000, -193.00000, 924.00000, 1.44806, 0.06714, 0.03052, -101.80950, 11.66100, -411936, 1830.00000, -190.00000, 928.00000, 1.44806, 0.18921, 0.09155, -101.80950, 11.66100, -411976, 1829.00000, -194.00000, 930.00000, 1.44806, 0.06714, 0.09155, -102.55700, 12.40850, -412016, 1832.00000, -193.00000, 926.00000, 1.50909, 0.00610, -0.09155, -102.55700, 12.40850, -12056, 1838.00000, -192.00000, 920.00000, 1.50909, -0.11597, -0.03052, -102.55700, 12.40850, 12096, 1835.00000, -192.00000, 924.00000, 1.44806, 0.06714, 0.03052, -100.46400, 12.40850, -412136, 1833.00000, -194.00000, 929.00000, 1.38702, 0.12817, 0.03052, -101.51050, 13.60450, -412185, 1829.00000, -196.00000, 928.00000, 1.50909, 0.00610, -0.03052, -101.95900, 12.70750, -12225, 1833.00000, -196.00000, 926.00000, 1.50909, -0.05493, -0.09155, -101.95900, 12.70750, 12265, 1836.00000, -192.00000, 922.00000, 1.38702, 0.00610, -0.03052, -102.55700, 12.85700, -12305, 1838.00000, -190.00000, 925.00000, 1.44806, 0.06714, 0.03052, -103.60350, 12.40850, -412345, 1831.00000, -196.00000, 926.00000, 1.44806, 0.12817, 0.03052, -103.60350, 12.40850, -412385, 1832.00000, -191.00000, 926.00000, 1.44806, 0.00610, -0.03052, -101.36100, 14.50150, -45.74700
11809, 1834.00000, -193.00000, 923.00000, 1.38702, -0.05493, -0.09155, -103.90250, 11.96000, 11849, 1835.00000, -192.00000, 924.00000, 1.38702, 0.06714, 0.09155, -101.80950, 11.66100, -411889, 1838.00000, -193.00000, 924.00000, 1.44806, 0.06714, 0.03052, -101.80950, 11.66100, -411936, 1830.00000, -190.00000, 928.00000, 1.44806, 0.18921, 0.09155, -101.80950, 11.66100, -411976, 1829.00000, -194.00000, 930.00000, 1.44806, 0.06714, 0.09155, -102.55700, 12.40850, -412016, 1832.00000, -193.00000, 926.00000, 1.50909, 0.00610, -0.09155, -102.55700, 12.40850, -12056, 1838.00000, -192.00000, 920.00000, 1.50909, -0.11597, -0.03052, -102.55700, 12.40850, 12096, 1835.00000, -192.00000, 924.00000, 1.44806, 0.06714, 0.03052, -100.46400, 12.40850, -412136, 1833.00000, -194.00000, 929.00000, 1.38702, 0.12817, 0.03052, -101.51050, 13.60450, -412185, 1829.00000, -196.00000, 928.00000, 1.50909, 0.00610, -0.03052, -101.95900, 12.70750, -12225, 1833.00000, -196.00000, 926.00000, 1.50909, -0.05493, -0.09155, -101.95900, 12.70750, 12265, 1836.00000, -192.00000, 922.00000, 1.38702, 0.00610, -0.03052, -102.55700, 12.85700, -12305, 1838.00000, -190.00000, 925.00000, 1.44806, 0.06714, 0.03052, -103.60350, 12.40850, -412345, 1831.00000, -196.00000, 926.00000, 1.44806, 0.12817, 0.03052, -103.60350, 12.40850, -412385, 1832.00000, -191.00000, 926.00000, 1.44806, 0.00610, -0.03052, -101.36100, 14.50150, -45.74700
11849, 1835.00000, -192.00000, 924.00000, 1.38702, 0.06714, 0.09155, -101.80950, 11.66100, -411889, 1838.00000, -193.00000, 924.00000, 1.44806, 0.06714, 0.03052, -101.80950, 11.66100, -411936, 1830.00000, -190.00000, 928.00000, 1.44806, 0.18921, 0.09155, -101.80950, 11.66100, -411976, 1829.00000, -194.00000, 930.00000, 1.44806, 0.06714, 0.09155, -102.55700, 12.40850, -412016, 1832.00000, -193.00000, 926.00000, 1.50909, 0.00610, -0.09155, -102.55700, 12.40850, -12056, 1838.00000, -192.00000, 920.00000, 1.50909, -0.11597, -0.03052, -102.55700, 12.40850, 12096, 1835.00000, -192.00000, 924.00000, 1.44806, 0.06714, 0.03052, -100.46400, 12.40850, -412136, 1833.00000, -194.00000, 929.00000, 1.38702, 0.12817, 0.03052, -101.51050, 13.60450, -412185, 1829.00000, -196.00000, 928.00000, 1.50909, 0.00610, -0.03052, -101.95900, 12.70750, -12225, 1833.00000, -196.00000, 926.00000, 1.50909, -0.05493, -0.09155, -101.95900, 12.70750, 12265, 1836.00000, -192.00000, 922.00000, 1.38702, 0.00610, -0.03052, -102.55700, 12.85700, -12305, 1838.00000, -190.00000, 925.00000, 1.44806, 0.06714, 0.03052, -103.60350, 12.40850, -412345, 1831.00000, -196.00000, 926.00000, 1.44806, 0.12817, 0.03052, -103.60350, 12.40850, -412385, 1832.00000, -191.00000, 926.00000, 1.44806, 0.00610, -0.03052, -101.36100, 14.50150, -45.74700
11889, 1838.00000, -193.00000, 924.00000, 1.44806, 0.06714, 0.03052, -101.80950, 11.66100, -411936, 1830.00000, -190.00000, 928.00000, 1.44806, 0.18921, 0.09155, -101.80950, 11.66100, -411976, 1829.00000, -194.00000, 930.00000, 1.44806, 0.06714, 0.09155, -102.55700, 12.40850, -412016, 1832.00000, -193.00000, 926.00000, 1.50909, 0.00610, -0.09155, -102.55700, 12.40850, -12056, 1838.00000, -192.00000, 920.00000, 1.50909, -0.11597, -0.03052, -102.55700, 12.40850, 12096, 1835.00000, -192.00000, 924.00000, 1.44806, 0.06714, 0.03052, -100.46400, 12.40850, -412136, 1833.00000, -194.00000, 929.00000, 1.38702, 0.12817, 0.03052, -101.51050, 13.60450, -412185, 1829.00000, -196.00000, 928.00000, 1.50909, 0.00610, -0.03052, -101.95900, 12.70750, -12225, 1833.00000, -196.00000, 926.00000, 1.50909, -0.05493, -0.09155, -101.95900, 12.70750, 12265, 1836.00000, -192.00000, 922.00000, 1.38702, 0.00610, -0.03052, -102.55700, 12.85700, -12305, 1838.00000, -190.00000, 925.00000, 1.44806, 0.06714, 0.03052, -103.60350, 12.40850, -412345, 1831.00000, -196.00000, 926.00000, 1.44806, 0.12817, 0.03052, -103.60350, 12.40850, -412385, 1832.00000, -191.00000, 926.00000, 1.44806, 0.00610, -0.03052, -101.36100, 14.50150, -45.74700
11936, 1830.00000, -190.00000, 928.00000, 1.44806, 0.18921, 0.09155, -101.80950, 11.66100, -411976, 1829.00000, -194.00000, 930.00000, 1.44806, 0.06714, 0.09155, -102.55700, 12.40850, -412016, 1832.00000, -193.00000, 926.00000, 1.50909, 0.00610, -0.09155, -102.55700, 12.40850, -12056, 1838.00000, -192.00000, 920.00000, 1.50909, -0.11597, -0.03052, -102.55700, 12.40850, 12096, 1835.00000, -192.00000, 924.00000, 1.44806, 0.06714, 0.03052, -100.46400, 12.40850, -412136, 1833.00000, -194.00000, 929.00000, 1.38702, 0.12817, 0.03052, -101.51050, 13.60450, -412185, 1829.00000, -196.00000, 928.00000, 1.50909, 0.00610, -0.03052, -101.95900, 12.70750, -12225, 1833.00000, -196.00000, 926.00000, 1.50909, -0.05493, -0.09155, -101.95900, 12.70750, 12265, 1836.00000, -192.00000, 922.00000, 1.38702, 0.00610, -0.03052, -102.55700, 12.85700, -12305, 1838.00000, -190.00000, 925.00000, 1.44806, 0.06714, 0.03052, -103.60350, 12.40850, -412345, 1831.00000, -196.00000, 926.00000, 1.44806, 0.12817, 0.03052, -103.60350, 12.40850, -412385, 1832.00000, -191.00000, 926.00000, 1.44806, 0.00610, -0.03052, -101.36100, 14.50150, -45.74700
11976, 1829.00000, -194.00000, 930.00000, 1.44806, 0.06714, 0.09155, -102.55700, 12.40850, -412016, 1832.00000, -193.00000, 926.00000, 1.50909, 0.00610, -0.09155, -102.55700, 12.40850, -12056, 1838.00000, -192.00000, 920.00000, 1.50909, -0.11597, -0.03052, -102.55700, 12.40850, 12096, 1835.00000, -192.00000, 924.00000, 1.44806, 0.06714, 0.03052, -100.46400, 12.40850, -412136, 1833.00000, -194.00000, 929.00000, 1.38702, 0.12817, 0.03052, -101.51050, 13.60450, -412185, 1829.00000, -196.00000, 928.00000, 1.50909, 0.00610, -0.03052, -101.95900, 12.70750, -12225, 1833.00000, -196.00000, 926.00000, 1.50909, -0.05493, -0.09155, -101.95900, 12.70750, 12265, 1836.00000, -192.00000, 922.00000, 1.38702, 0.00610, -0.03052, -102.55700, 12.85700, -12305, 1838.00000, -190.00000, 925.00000, 1.44806, 0.06714, 0.03052, -103.60350, 12.40850, -412345, 1831.00000, -196.00000, 926.00000, 1.44806, 0.12817, 0.03052, -103.60350, 12.40850, -412385, 1832.00000, -191.00000, 926.00000, 1.44806, 0.00610, -0.03052, -101.36100, 14.50150, -45.74700
12016, 1832.00000, -193.00000, 926.00000, 1.50909, 0.00610, -0.09155, -102.55700, 12.40850, -12056, 1838.00000, -192.00000, 920.00000, 1.50909, -0.11597, -0.03052, -102.55700, 12.40850, 12096, 1835.00000, -192.00000, 924.00000, 1.44806, 0.06714, 0.03052, -100.46400, 12.40850, -412136, 1833.00000, -194.00000, 929.00000, 1.38702, 0.12817, 0.03052, -101.51050, 13.60450, -412185, 1829.00000, -196.00000, 928.00000, 1.50909, 0.00610, -0.03052, -101.95900, 12.70750, -12225, 1833.00000, -196.00000, 926.00000, 1.50909, -0.05493, -0.09155, -101.95900, 12.70750, 12265, 1836.00000, -192.00000, 922.00000, 1.38702, 0.00610, -0.03052, -102.55700, 12.85700, -12305, 1838.00000, -190.00000, 925.00000, 1.44806, 0.06714, 0.03052, -103.60350, 12.40850, -412345, 1831.00000, -196.00000, 926.00000, 1.44806, 0.12817, 0.03052, -103.60350, 12.40850, -412385, 1832.00000, -191.00000, 926.00000, 1.44806, 0.00610, -0.03052, -101.36100, 14.50150, -45.74700
12056, 1838.00000, -192.00000, 920.00000, 1.50909, -0.11597, -0.03052, -102.55700, 12.40850, 12096, 1835.00000, -192.00000, 924.00000, 1.44806, 0.06714, 0.03052, -100.46400, 12.40850, -412136, 1833.00000, -194.00000, 929.00000, 1.38702, 0.12817, 0.03052, -101.51050, 13.60450, -412185, 1829.00000, -196.00000, 928.00000, 1.50909, 0.00610, -0.03052, -101.95900, 12.70750, -12225, 1833.00000, -196.00000, 926.00000, 1.50909, -0.05493, -0.09155, -101.95900, 12.70750, 12265, 1836.00000, -192.00000, 922.00000, 1.38702, 0.00610, -0.03052, -102.55700, 12.85700, -12305, 1838.00000, -190.00000, 925.00000, 1.44806, 0.06714, 0.03052, -103.60350, 12.40850, -412345, 1831.00000, -196.00000, 926.00000, 1.44806, 0.12817, 0.03052, -103.60350, 12.40850, -412385, 1832.00000, -191.00000, 926.00000, 1.44806, 0.00610, -0.03052, -101.36100, 14.50150, -45.74700
12096, 1835.00000, -192.00000, 924.00000, 1.44806, 0.06714, 0.03052, -100.46400, 12.40850, -412136, 1833.00000, -194.00000, 929.00000, 1.38702, 0.12817, 0.03052, -101.51050, 13.60450, -412185, 1829.00000, -196.00000, 928.00000, 1.50909, 0.00610, -0.03052, -101.95900, 12.70750, -12225, 1833.00000, -196.00000, 926.00000, 1.50909, -0.05493, -0.09155, -101.95900, 12.70750, 12265, 1836.00000, -192.00000, 922.00000, 1.38702, 0.00610, -0.03052, -102.55700, 12.85700, -12305, 1838.00000, -190.00000, 925.00000, 1.44806, 0.06714, 0.03052, -103.60350, 12.40850, -412345, 1831.00000, -196.00000, 926.00000, 1.44806, 0.12817, 0.03052, -103.60350, 12.40850, -412385, 1832.00000, -191.00000, 926.00000, 1.44806, 0.00610, -0.03052, -101.36100, 14.50150, -45.74700
12136, 1833.00000, -194.00000, 929.00000, 1.38702, 0.12817, 0.03052, -101.51050, 13.60450, -412185, 1829.00000, -196.00000, 928.00000, 1.50909, 0.00610, -0.03052, -101.95900, 12.70750, -12225, 1833.00000, -196.00000, 926.00000, 1.50909, -0.05493, -0.09155, -101.95900, 12.70750, 12265, 1836.00000, -192.00000, 922.00000, 1.38702, 0.00610, -0.03052, -102.55700, 12.85700, -12305, 1838.00000, -190.00000, 925.00000, 1.44806, 0.06714, 0.03052, -103.60350, 12.40850, -412345, 1831.00000, -196.00000, 926.00000, 1.44806, 0.12817, 0.03052, -103.60350, 12.40850, -412385, 1832.00000, -191.00000, 926.00000, 1.44806, 0.00610, -0.03052, -101.36100, 14.50150, -45.74700
12185, 1829.00000, -196.00000, 928.00000, 1.50909, 0.00610, -0.03052, -101.95900, 12.70750, -12225, 1833.00000, -196.00000, 926.00000, 1.50909, -0.05493, -0.09155, -101.95900, 12.70750, 12265, 1836.00000, -192.00000, 922.00000, 1.38702, 0.00610, -0.03052, -102.55700, 12.85700, -12305, 1838.00000, -190.00000, 925.00000, 1.44806, 0.06714, 0.03052, -103.60350, 12.40850, -412345, 1831.00000, -196.00000, 926.00000, 1.44806, 0.12817, 0.03052, -103.60350, 12.40850, -412385, 1832.00000, -191.00000, 926.00000, 1.44806, 0.00610, -0.03052, -101.36100, 14.50150, -45.74700
12225, 1833.00000, -196.00000, 926.00000, 1.50909, -0.05493, -0.09155, -101.95900, 12.70750, 12265, 1836.00000, -192.00000, 922.00000, 1.38702, 0.00610, -0.03052, -102.55700, 12.85700, -12305, 1838.00000, -190.00000, 925.00000, 1.44806, 0.06714, 0.03052, -103.60350, 12.40850, -412345, 1831.00000, -196.00000, 926.00000, 1.44806, 0.12817, 0.03052, -103.60350, 12.40850, -412385, 1832.00000, -191.00000, 926.00000, 1.44806, 0.00610, -0.03052, -101.36100, 14.50150, -45.74700
12265, 1836.00000, -192.00000, 922.00000, 1.38702, 0.00610, -0.03052, -102.55700, 12.85700, -12305, 1838.00000, -190.00000, 925.00000, 1.44806, 0.06714, 0.03052, -103.60350, 12.40850, -412345, 1831.00000, -196.00000, 926.00000, 1.44806, 0.12817, 0.03052, -103.60350, 12.40850, -412385, 1832.00000, -191.00000, 926.00000, 1.44806, 0.00610, -0.03052, -101.36100, 14.50150, -45.74700
12305, 1838.00000, -190.00000, 925.00000, 1.44806, 0.06714, 0.03052, -103.60350, 12.40850, -412345, 1831.00000, -196.00000, 926.00000, 1.44806, 0.12817, 0.03052, -103.60350, 12.40850, -412385, 1832.00000, -191.00000, 926.00000, 1.44806, 0.00610, -0.03052, -101.36100, 14.50150, -45.74700
12345, 1831.00000, -196.00000, 926.00000, 1.44806, 0.12817, 0.03052, -103.60350, 12.40850, -412385, 1832.00000, -191.00000, 926.00000, 1.44806, 0.00610, -0.03052, -101.36100, 14.50150, -45.74700
12385, 1832.00000, -191.00000, 926.00000, 1.44806, 0.00610, -0.03052, -101.36100, 14.50150, -45.74700
12504, 1835.00000, -190.00000, 926.00000, 1.44806, 0.00610, -0.03052, -102.70650, 13.45500, -12544, 1837.00000, -193.00000, 926.00000, 1.44806, 0.00610, 0.09155, -102.70650, 13.45500, -412584, 1835.00000, -192.00000, 926.00000, 1.44806, 0.12817, 0.03052, -102.70650, 13.45500, -412624, 1834.00000, -195.00000, 927.00000, 1.38702, 0.06714, 0.03052, -101.06200, 13.60450, -412664, 1833.00000, -191.00000, 926.00000, 1.44806, 0.00610, 0.03052, -101.51050, 12.85700, -412704, 1836.00000, -192.00000, 926.00000, 1.44806, -0.05493, -0.03052, -102.40750, 13.45500, 12744, 1834.00000, -190.00000, 921.00000, 1.57013, 0.00610, -0.03052, -102.40750, 13.45500, -12784, 1835.00000, -191.00000, 924.00000, 1.44806, 0.25024, 0.03052, -103.90250, 12.25900, -412824, 1832.00000, -193.00000, 931.00000, 1.44806, 0.12817, -0.03052, -101.80950, 13.15600, -12864, 1836.00000, -192.00000, 927.00000, 1.50909, 0.06714, 0.03052, -101.80950, 13.15600, -412904, 1835.00000, -192.00000, 922.00000, 1.50909, -0.05493, -0.03052, -101.80950, 13.15600, 12944, 1839.00000, -196.00000, 920.00000, 1.44806, 0.06714, -0.03052, -101.80950, 13.15600, -12984, 1832.00000, -194.00000, 924.00000, 1.44806, 0.12817, 0.03052, -103.60350, 11.66100, -413030, 1831.00000, -192.00000, 925.00000, 1.50909, 0.00610, -0.03052, -102.25800, 12.85700, -13070, 1834.00000, -192.00000, 925.00000, 1.38702, 0.00610, -0.09155, -102.25800, 13.60450, -13110, 1837.00000, -193.00000, 921.00000, 1.44806, 0.06714, -0.03052, -102.40750, 12.25900, -13150, 1835.00000, -191.00000, 924.00000, 1.50909, 0.06714, 0.03052, -102.40750, 12.70750, -413190, 1835.00000, -191.00000, 923.00000, 1.50909, 0.06714, -0.03052, -102.40750, 12.70750, -13230, 1832.00000, -190.00000, 925.00000, 1.44806, 0.00610, -0.03052, -102.40750, 12.70750, -13280, 1833.00000, -194.00000, 921.00000, 1.44806, 0.06714, -0.03052, -102.40750, 12.70750, -13320, 1833.00000, -195.00000, 923.00000, 1.44806, 0.12817, 0.03052, -101.06200, 13.90350, -413360, 1834.00000, -194.00000, 924.00000, 1.50909, -0.05493, -0.03052, -102.25800, 13.60450, 13400, 1838.00000, -191.00000, 923.00000, 1.44806, 0.00610, -0.03052, -101.95900, 13.00650, -13440, 1833.00000, -189.00000, 926.00000, 1.44806, 0.12817, -0.03052, -100.16500, 13.00650, -13480, 1837.00000, -188.00000, 924.00000, 1.50909, 0.00610, -0.03052, -100.16500, 13.00650, -45.44800
12544, 1837.00000, -193.00000, 926.00000, 1.44806, 0.00610, 0.09155, -102.70650, 13.45500, -412584, 1835.00000, -192.00000, 926.00000, 1.44806, 0.12817, 0.03052, -102.70650, 13.45500, -412624, 1834.00000, -195.00000, 927.00000, 1.38702, 0.06714, 0.03052, -101.06200, 13.60450, -412664, 1833.00000, -191.00000, 926.00000, 1.44806, 0.00610, 0.03052, -101.51050, 12.85700, -412704, 1836.00000, -192.00000, 926.00000, 1.44806, -0.05493, -0.03052, -102.40750, 13.45500, 12744, 1834.00000, -190.00000, 921.00000, 1.57013, 0.00610, -0.03052, -102.40750, 13.45500, -12784, 1835.00000, -191.00000, 924.00000, 1.44806, 0.25024, 0.03052, -103.90250, 12.25900, -412824, 1832.00000, -193.00000, 931.00000, 1.44806, 0.12817, -0.03052, -101.80950, 13.15600, -12864, 1836.00000, -192.00000, 927.00000, 1.50909, 0.06714, 0.03052, -101.80950, 13.15600, -412904, 1835.00000, -192.00000, 922.00000, 1.50909, -0.05493, -0.03052, -101.80950, 13.15600, 12944, 1839.00000, -196.00000, 920.00000, 1.44806, 0.06714, -0.03052, -101.80950, 13.15600, -12984, 1832.00000, -194.00000, 924.00000, 1.44806, 0.12817, 0.03052, -103.60350, 11.66100, -413030, 1831.00000, -192.00000, 925.00000, 1.50909, 0.00610, -0.03052, -102.25800, 12.85700, -13070, 1834.00000, -192.00000, 925.00000, 1.38702, 0.00610, -0.09155, -102.25800, 13.60450, -13110, 1837.00000, -193.00000, 921.00000, 1.44806, 0.06714, -0.03052, -102.40750, 12.25900, -13150, 1835.00000, -191.00000, 924.00000, 1.50909, 0.06714, 0.03052, -102.40750, 12.70750, -413190, 1835.00000, -191.00000, 923.00000, 1.50909, 0.06714, -0.03052, -102.40750, 12.70750, -13230, 1832.00000, -190.00000, 925.00000, 1.44806, 0.00610, -0.03052, -102.40750, 12.70750, -13280, 1833.00000, -194.00000, 921.00000, 1.44806, 0.06714, -0.03052, -102.40750, 12.70750, -13320, 1833.00000, -195.00000, 923.00000, 1.44806, 0.12817, 0.03052, -101.06200, 13.90350, -413360, 1834.00000, -194.00000, 924.00000, 1.50909, -0.05493, -0.03052, -102.25800, 13.60450, 13400, 1838.00000, -191.00000, 923.00000, 1.44806, 0.00610, -0.03052, -101.95900, 13.00650, -13440, 1833.00000, -189.00000, 926.00000, 1.44806, 0.12817, -0.03052, -100.16500, 13.00650, -13480, 1837.00000, -188.00000, 924.00000, 1.50909, 0.00610, -0.03052, -100.16500, 13.00650, -45.44800
12584, 1835.00000, -192.00000, 926.00000, 1.44806, 0.12817, 0.03052, -102.70650, 13.45500, -412624, 1834.00000, -195.00000, 927.00000, 1.38702, 0.06714, 0.03052, -101.06200, 13.60450, -412664, 1833.00000, -191.00000, 926.00000, 1.44806, 0.00610, 0.03052, -101.51050, 12.85700, -412704, 1836.00000, -192.00000, 926.00000, 1.44806, -0.05493, -0.03052, -102.40750, 13.45500, 12744, 1834.00000, -190.00000, 921.00000, 1.57013, 0.00610, -0.03052, -102.40750, 13.45500, -12784, 1835.00000, -191.00000, 924.00000, 1.44806, 0.25024, 0.03052, -103.90250, 12.25900, -412824, 1832.00000, -193.00000, 931.00000, 1.44806, 0.12817, -0.03052, -101.80950, 13.15600, -12864, 1836.00000, -192.00000, 927.00000, 1.50909, 0.06714, 0.03052, -101.80950, 13.15600, -412904, 1835.00000, -192.00000, 922.00000, 1.50909, -0.05493, -0.03052, -101.80950, 13.15600, 12944, 1839.00000, -196.00000, 920.00000, 1.44806, 0.06714, -0.03052, -101.80950, 13.15600, -12984, 1832.00000, -194.00000, 924.00000, 1.44806, 0.12817, 0.03052, -103.60350, 11.66100, -413030, 1831.00000, -192.00000, 925.00000, 1.50909, 0.00610, -0.03052, -102.25800, 12.85700, -13070, 1834.00000, -192.00000, 925.00000, 1.38702, 0.00610, -0.09155, -102.25800, 13.60450, -13110, 1837.00000, -193.00000, 921.00000, 1.44806, 0.06714, -0.03052, -102.40750, 12.25900, -13150, 1835.00000, -191.00000, 924.00000, 1.50909, 0.06714, 0.03052, -102.40750, 12.70750, -413190, 1835.00000, -191.00000, 923.00000, 1.50909, 0.06714, -0.03052, -102.40750, 12.70750, -13230, 1832.00000, -190.00000, 925.00000, 1.44806, 0.00610, -0.03052, -102.40750, 12.70750, -13280, 1833.00000, -194.00000, 921.00000, 1.44806, 0.06714, -0.03052, -102.40750, 12.70750, -13320, 1833.00000, -195.00000, 923.00000, 1.44806, 0.12817, 0.03052, -101.06200, 13.90350, -413360, 1834.00000, -194.00000, 924.00000, 1.50909, -0.05493, -0.03052, -102.25800, 13.60450, 13400, 1838.00000, -191.00000, 923.00000, 1.44806, 0.00610, -0.03052, -101.95900, 13.00650, -13440, 1833.00000, -189.00000, 926.00000, 1.44806, 0.12817, -0.03052, -100.16500, 13.00650, -13480, 1837.00000, -188.00000, 924.00000, 1.50909, 0.00610, -0.03052, -100.16500, 13.00650, -45.44800
12624, 1834.00000, -195.00000, 927.00000, 1.38702, 0.06714, 0.03052, -101.06200, 13.60450, -412664, 1833.00000, -191.00000, 926.00000, 1.44806, 0.00610, 0.03052, -101.51050, 12.85700, -412704, 1836.00000, -192.00000, 926.00000, 1.44806, -0.05493, -0.03052, -102.40750, 13.45500, 12744, 1834.00000, -190.00000, 921.00000, 1.57013, 0.00610, -0.03052, -102.40750, 13.45500, -12784, 1835.00000, -191.00000, 924.00000, 1.44806, 0.25024, 0.03052, -103.90250, 12.25900, -412824, 1832.00000, -193.00000, 931.00000, 1.44806, 0.12817, -0.03052, -101.80950, 13.15600, -12864, 1836.00000, -192.00000, 927.00000, 1.50909, 0.06714, 0.03052, -101.80950, 13.15600, -412904, 1835.00000, -192.00000, 922.00000, 1.50909, -0.05493, -0.03052, -101.80950, 13.15600, 12944, 1839.00000, -196.00000, 920.00000, 1.44806, 0.06714, -0.03052, -101.80950, 13.15600, -12984, 1832.00000, -194.00000, 924.00000, 1.44806, 0.12817, 0.03052, -103.60350, 11.66100, -413030, 1831.00000, -192.00000, 925.00000, 1.50909, 0.00610, -0.03052, -102.25800, 12.85700, -13070, 1834.00000, -192.00000, 925.00000, 1.38702, 0.00610, -0.09155, -102.25800, 13.60450, -13110, 1837.00000, -193.00000, 921.00000, 1.44806, 0.06714, -0.03052, -102.40750, 12.25900, -13150, 1835.00000, -191.00000, 924.00000, 1.50909, 0.06714, 0.03052, -102.40750, 12.70750, -413190, 1835.00000, -191.00000, 923.00000, 1.50909, 0.06714, -0.03052, -102.40750, 12.70750, -13230, 1832.00000, -190.00000, 925.00000, 1.44806, 0.00610, -0.03052, -102.40750, 12.70750, -13280, 1833.00000, -194.00000, 921.00000, 1.44806, 0.06714, -0.03052, -102.40750, 12.70750, -13320, 1833.00000, -195.00000, 923.00000, 1.44806, 0.12817, 0.03052, -101.06200, 13.90350, -413360, 1834.00000, -194.00000, 924.00000, 1.50909, -0.05493, -0.03052, -102.25800, 13.60450, 13400, 1838.00000, -191.00000, 923.00000, 1.44806, 0.00610, -0.03052, -101.95900, 13.00650, -13440, 1833.00000, -189.00000, 926.00000, 1.44806, 0.12817, -0.03052, -100.16500, 13.00650, -13480, 1837.00000, -188.00000, 924.00000, 1.50909, 0.00610, -0.03052, -100.16500, 13.00650, -45.44800
12664, 1833.00000, -191.00000, 926.00000, 1.44806, 0.00610, 0.03052, -101.51050, 12.85700, -412704, 1836.00000, -192.00000, 926.00000, 1.44806, -0.05493, -0.03052, -102.40750, 13.45500, 12744, 1834.00000, -190.00000, 921.00000, 1.57013, 0.00610, -0.03052, -102.40750, 13.45500, -12784, 1835.00000, -191.00000, 924.00000, 1.44806, 0.25024, 0.03052, -103.90250, 12.25900, -412824, 1832.00000, -193.00000, 931.00000, 1.44806, 0.12817, -0.03052, -101.80950, 13.15600, -12864, 1836.00000, -192.00000, 927.00000, 1.50909, 0.06714, 0.03052, -101.80950, 13.15600, -412904, 1835.00000, -192.00000, 922.00000, 1.50909, -0.05493, -0.03052, -101.80950, 13.15600, 12944, 1839.00000, -196.00000, 920.00000, 1.44806, 0.06714, -0.03052, -101.80950, 13.15600, -12984, 1832.00000, -194.00000, 924.00000, 1.44806, 0.12817, 0.03052, -103.60350, 11.66100, -413030, 1831.00000, -192.00000, 925.00000, 1.50909, 0.00610, -0.03052, -102.25800, 12.85700, -13070, 1834.00000, -192.00000, 925.00000, 1.38702, 0.00610, -0.09155, -102.25800, 13.60450, -13110, 1837.00000, -193.00000, 921.00000, 1.44806, 0.06714, -0.03052, -102.40750, 12.25900, -13150, 1835.00000, -191.00000, 924.00000, 1.50909, 0.06714, 0.03052, -102.40750, 12.70750, -413190, 1835.00000, -191.00000, 923.00000, 1.50909, 0.06714, -0.03052, -102.40750, 12.70750, -13230, 1832.00000, -190.00000, 925.00000, 1.44806, 0.00610, -0.03052, -102.40750, 12.70750, -13280, 1833.00000, -194.00000, 921.00000, 1.44806, 0.06714, -0.03052, -102.40750, 12.70750, -13320, 1833.00000, -195.00000, 923.00000, 1.44806, 0.12817, 0.03052, -101.06200, 13.90350, -413360, 1834.00000, -194.00000, 924.00000, 1.50909, -0.05493, -0.03052, -102.25800, 13.60450, 13400, 1838.00000, -191.00000, 923.00000, 1.44806, 0.00610, -0.03052, -101.95900, 13.00650, -13440, 1833.00000, -189.00000, 926.00000, 1.44806, 0.12817, -0.03052, -100.16500, 13.00650, -13480, 1837.00000, -188.00000, 924.00000, 1.50909, 0.00610, -0.03052, -100.16500, 13.00650, -45.44800
12704, 1836.00000, -192.00000, 926.00000, 1.44806, -0.05493, -0.03052, -102.40750, 13.45500, 12744, 1834.00000, -190.00000, 921.00000, 1.57013, 0.00610, -0.03052, -102.40750, 13.45500, -12784, 1835.00000, -191.00000, 924.00000, 1.44806, 0.25024, 0.03052, -103.90250, 12.25900, -412824, 1832.00000, -193.00000, 931.00000, 1.44806, 0.12817, -0.03052, -101.80950, 13.15600, -12864, 1836.00000, -192.00000, 927.00000, 1.50909, 0.06714, 0.03052, -101.80950, 13.15600, -412904, 1835.00000, -192.00000, 922.00000, 1.50909, -0.05493, -0.03052, -101.80950, 13.15600, 12944, 1839.00000, -196.00000, 920.00000, 1.44806, 0.06714, -0.03052, -101.80950, 13.15600, -12984, 1832.00000, -194.00000, 924.00000, 1.44806, 0.12817, 0.03052, -103.60350, 11.66100, -413030, 1831.00000, -192.00000, 925.00000, 1.50909, 0.00610, -0.03052, -102.25800, 12.85700, -13070, 1834.00000, -192.00000, 925.00000, 1.38702, 0.00610, -0.09155, -102.25800, 13.60450, -13110, 1837.00000, -193.00000, 921.00000, 1.44806, 0.06714, -0.03052, -102.40750, 12.25900, -13150, 1835.00000, -191.00000, 924.00000, 1.50909, 0.06714, 0.03052, -102.40750, 12.70750, -413190, 1835.00000, -191.00000, 923.00000, 1.50909, 0.06714, -0.03052, -102.40750, 12.70750, -13230, 1832.00000, -190.00000, 925.00000, 1.44806, 0.00610, -0.03052, -102.40750, 12.70750, -13280, 1833.00000, -194.00000, 921.00000, 1.44806, 0.06714, -0.03052, -102.40750, 12.70750, -13320, 1833.00000, -195.00000, 923.00000, 1.44806, 0.12817, 0.03052, -101.06200, 13.90350, -413360, 1834.00000, -194.00000, 924.00000, 1.50909, -0.05493, -0.03052, -102.25800, 13.60450, 13400, 1838.00000, -191.00000, 923.00000, 1.44806, 0.00610, -0.03052, -101.95900, 13.00650, -13440, 1833.00000, -189.00000, 926.00000, 1.44806, 0.12817, -0.03052, -100.16500, 13.00650, -13480, 1837.00000, -188.00000, 924.00000, 1.50909, 0.00610, -0.03052, -100.16500, 13.00650, -45.44800
12744, 1834.00000, -190.00000, 921.00000, 1.57013, 0.00610, -0.03052, -102.40750, 13.45500, -12784, 1835.00000, -191.00000, 924.00000, 1.44806, 0.25024, 0.03052, -103.90250, 12.25900, -412824, 1832.00000, -193.00000, 931.00000, 1.44806, 0.12817, -0.03052, -101.80950, 13.15600, -12864, 1836.00000, -192.00000, 927.00000, 1.50909, 0.06714, 0.03052, -101.80950, 13.15600, -412904, 1835.00000, -192.00000, 922.00000, 1.50909, -0.05493, -0.03052, -101.80950, 13.15600, 12944, 1839.00000, -196.00000, 920.00000, 1.44806, 0.06714, -0.03052, -101.80950, 13.15600, -12984, 1832.00000, -194.00000, 924.00000, 1.44806, 0.12817, 0.03052, -103.60350, 11.66100, -413030, 1831.00000, -192.00000, 925.00000, 1.50909, 0.00610, -0.03052, -102.25800, 12.85700, -13070, 1834.00000, -192.00000, 925.00000, 1.38702, 0.00610, -0.09155, -102.25800, 13.60450, -13110, 1837.00000, -193.00000, 921.00000, 1.44806, 0.06714, -0.03052, -102.40750, 12.25900, -13150, 1835.00000, -191.00000, 924.00000, 1.50909, 0.06714, 0.03052, -102.40750, 12.70750, -413190, 1835.00000, -191.00000, 923.00000, 1.50909, 0.06714, -0.03052, -102.40750, 12.70750, -13230, 1832.00000, -190.00000, 925.00000, 1.44806, 0.00610, -0.03052, -102.40750, 12.70750, -13280, 1833.00000, -194.00000, 921.00000, 1.44806, 0.06714, -0.03052, -102.40750, 12.70750, -13320, 1833.00000, -195.00000, 923.00000, 1.44806, 0.12817, 0.03052, -101.06200, 13.90350, -413360, 1834.00000, -194.00000, 924.00000, 1.50909, -0.05493, -0.03052, -102.25800, 13.60450, 13400, 1838.00000, -191.00000, 923.00000, 1.44806, 0.00610, -0.03052, -101.95900, 13.00650, -13440, 1833.00000, -189.00000, 926.00000, 1.44806, 0.12817, -0.03052, -100.16500, 13.00650, -13480, 1837.00000, -188.00000, 924.00000, 1.50909, 0.00610, -0.03052, -100.16500, 13.00650, -45.44800
12784, 1835.00000, -191.00000, 924.00000, 1.44806, 0.25024, 0.03052, -103.90250, 12.25900, -412824, 1832.00000, -193.00000, 931.00000, 1.44806, 0.12817, -0.03052, -101.80950, 13.15600, -12864, 1836.00000, -192.00000, 927.00000, 1.50909, 0.06714, 0.03052, -101.80950, 13.15600, -412904, 1835.00000, -192.00000, 922.00000, 1.50909, -0.05493, -0.03052, -101.80950, 13.15600, 12944, 1839.00000, -196.00000, 920.00000, 1.44806, 0.06714, -0.03052, -101.80950, 13.15600, -12984, 1832.00000, -194.00000, 924.00000, 1.44806, 0.12817, 0.03052, -103.60350, 11.66100, -413030, 1831.00000, -192.00000, 925.00000, 1.50909, 0.00610, -0.03052, -102.25800, 12.85700, -13070, 1834.00000, -192.00000, 925.00000, 1.38702, 0.00610, -0.09155, -102.25800, 13.60450, -13110, 1837.00000, -193.00000, 921.00000, 1.44806, 0.06714, -0.03052, -102.40750, 12.25900, -13150, 1835.00000, -191.00000, 924.00000, 1.50909, 0.06714, 0.03052, -102.40750, 12.70750, -413190, 1835.00000, -191.00000, 923.00000, 1.50909, 0.06714, -0.03052, -102.40750, 12.70750, -13230, 1832.00000, -190.00000, 925.00000, 1.44806, 0.00610, -0.03052, -102.40750, 12.70750, -13280, 1833.00000, -194.00000, 921.00000, 1.44806, 0.06714, -0.03052, -102.40750, 12.70750, -13320, 1833.00000, -195.00000, 923.00000, 1.44806, 0.12817, 0.03052, -101.06200, 13.90350, -413360, 1834.00000, -194.00000, 924.00000, 1.50909, -0.05493, -0.03052, -102.25800, 13.60450, 13400, 1838.00000, -191.00000, 923.00000, 1.44806, 0.00610, -0.03052, -101.95900, 13.00650, -13440, 1833.00000, -189.00000, 926.00000, 1.44806, 0.12817, -0.03052, -100.16500, 13.00650, -13480, 1837.00000, -188.00000, 924.00000, 1.50909, 0.00610, -0.03052, -100.16500, 13.00650, -45.44800
12824, 1832.00000, -193.00000, 931.00000, 1.44806, 0.12817, -0.03052, -101.80950, 13.15600, -12864, 1836.00000, -192.00000, 927.00000, 1.50909, 0.06714, 0.03052, -101.80950, 13.15600, -412904, 1835.00000, -192.00000, 922.00000, 1.50909, -0.05493, -0.03052, -101.80950, 13.15600, 12944, 1839.00000, -196.00000, 920.00000, 1.44806, 0.06714, -0.03052, -101.80950, 13.15600, -12984, 1832.00000, -194.00000, 924.00000, 1.44806, 0.12817, 0.03052, -103.60350, 11.66100, -413030, 1831.00000, -192.00000, 925.00000, 1.50909, 0.00610, -0.03052, -102.25800, 12.85700, -13070, 1834.00000, -192.00000, 925.00000, 1.38702, 0.00610, -0.09155, -102.25800, 13.60450, -13110, 1837.00000, -193.00000, 921.00000, 1.44806, 0.06714, -0.03052, -102.40750, 12.25900, -13150, 1835.00000, -191.00000, 924.00000, 1.50909, 0.06714, 0.03052, -102.40750, 12.70750, -413190, 1835.00000, -191.00000, 923.00000, 1.50909, 0.06714, -0.03052, -102.40750, 12.70750, -13230, 1832.00000, -190.00000, 925.00000, 1.44806, 0.00610, -0.03052, -102.40750, 12.70750, -13280, 1833.00000, -194.00000, 921.00000, 1.44806, 0.06714, -0.03052, -102.40750, 12.70750, -13320, 1833.00000, -195.00000, 923.00000, 1.44806, 0.12817, 0.03052, -101.06200, 13.90350, -413360, 1834.00000, -194.00000, 924.00000, 1.50909, -0.05493, -0.03052, -102.25800, 13.60450, 13400, 1838.00000, -191.00000, 923.00000, 1.44806, 0.00610, -0.03052, -101.95900, 13.00650, -13440, 1833.00000, -189.00000, 926.00000, 1.44806, 0.12817, -0.03052, -100.16500, 13.00650, -13480, 1837.00000, -188.00000, 924.00000, 1.50909, 0.00610, -0.03052, -100.16500, 13.00650, -45.44800
12864, 1836.00000, -192.00000, 927.00000, 1.50909, 0.06714, 0.03052, -101.80950, 13.15600, -412904, 1835.00000, -192.00000, 922.00000, 1.50909, -0.05493, -0.03052, -101.80950, 13.15600, 12944, 1839.00000, -196.00000, 920.00000, 1.44806, 0.06714, -0.03052, -101.80950, 13.15600, -12984, 1832.00000, -194.00000, 924.00000, 1.44806, 0.12817, 0.03052, -103.60350, 11.66100, -413030, 1831.00000, -192.00000, 925.00000, 1.50909, 0.00610, -0.03052, -102.25800, 12.85700, -13070, 1834.00000, -192.00000, 925.00000, 1.38702, 0.00610, -0.09155, -102.25800, 13.60450, -13110, 1837.00000, -193.00000, 921.00000, 1.44806, 0.06714, -0.03052, -102.40750, 12.25900, -13150, 1835.00000, -191.00000, 924.00000, 1.50909, 0.06714, 0.03052, -102.40750, 12.70750, -413190, 1835.00000, -191.00000, 923.00000, 1.50909, 0.06714, -0.03052, -102.40750, 12.70750, -13230, 1832.00000, -190.00000, 925.00000, 1.44806, 0.00610, -0.03052, -102.40750, 12.70750, -13280, 1833.00000, -194.00000, 921.00000, 1.44806, 0.06714, -0.03052, -102.40750, 12.70750, -13320, 1833.00000, -195.00000, 923.00000, 1.44806, 0.12817, 0.03052, -101.06200, 13.90350, -413360, 1834.00000, -194.00000, 924.00000, 1.50909, -0.05493, -0.03052, -102.25800, 13.60450, 13400, 1838.00000, -191.00000, 923.00000, 1.44806, 0.00610, -0.03052, -101.95900, 13.00650, -13440, 1833.00000, -189.00000, 926.00000, 1.44806, 0.12817, -0.03052, -100.16500, 13.00650, -13480, 1837.00000, -188.00000, 924.00000, 1.50909, 0.00610, -0.03052, -100.16500, 13.00650, -45.44800
12904, 1835.00000, -192.00000, 922.00000, 1.50909, -0.05493, -0.03052, -101.80950, 13.15600, 12944, 1839.00000, -196.00000, 920.00000, 1.44806, 0.06714, -0.03052, -101.80950, 13.15600, -12984, 1832.00000, -194.00000, 924.00000, 1.44806, 0.12817, 0.03052, -103.60350, 11.66100, -413030, 1831.00000, -192.00000, 925.00000, 1.50909, 0.00610, -0.03052, -102.25800, 12.85700, -13070, 1834.00000, -192.00000, 925.00000, 1.38702, 0.00610, -0.09155, -102.25800, 13.60450, -13110, 1837.00000, -193.00000, 921.00000, 1.44806, 0.06714, -0.03052, -102.40750, 12.25900, -13150, 1835.00000, -191.00000, 924.00000, 1.50909, 0.06714, 0.03052, -102.40750, 12.70750, -413190, 1835.00000, -191.00000, 923.00000, 1.50909, 0.06714, -0.03052, -102.40750, 12.70750, -13230, 1832.00000, -190.00000, 925.00000, 1.44806, 0.00610, -0.03052, -102.40750, 12.70750, -13280, 1833.00000, -194.00000, 921.00000, 1.44806, 0.06714, -0.03052, -102.40750, 12.70750, -13320, 1833.00000, -195.00000, 923.00000, 1.44806, 0.12817, 0.03052, -101.06200, 13.90350, -413360, 1834.00000, -194.00000, 924.00000, 1.50909, -0.05493, -0.03052, -102.25800, 13.60450, 13400, 1838.00000, -191.00000, 923.00000, 1.44806, 0.00610, -0.03052, -101.95900, 13.00650, -13440, 1833.00000, -189.00000, 926.00000, 1.44806, 0.12817, -0.03052, -100.16500, 13.00650, -13480, 1837.00000, -188.00000, 924.00000, 1.50909, 0.00610, -0.03052, -100.16500, 13.00650, -45.44800
12944, 1839.00000, -196.00000, 920.00000, 1.44806, 0.06714, -0.03052, -101.80950, 13.15600, -12984, 1832.00000, -194.00000, 924.00000, 1.44806, 0.12817, 0.03052, -103.60350, 11.66100, -413030, 1831.00000, -192.00000, 925.00000, 1.50909, 0.00610, -0.03052, -102.25800, 12.85700, -13070, 1834.00000, -192.00000, 925.00000, 1.38702, 0.00610, -0.09155, -102.25800, 13.60450, -13110, 1837.00000, -193.00000, 921.00000, 1.44806, 0.06714, -0.03052, -102.40750, 12.25900, -13150, 1835.00000, -191.00000, 924.00000, 1.50909, 0.06714, 0.03052, -102.40750, 12.70750, -413190, 1835.00000, -191.00000, 923.00000, 1.50909, 0.06714, -0.03052, -102.40750, 12.70750, -13230, 1832.00000, -190.00000, 925.00000, 1.44806, 0.00610, -0.03052, -102.40750, 12.70750, -13280, 1833.00000, -194.00000, 921.00000, 1.44806, 0.06714, -0.03052, -102.40750, 12.70750, -13320, 1833.00000, -195.00000, 923.00000, 1.44806, 0.12817, 0.03052, -101.06200, 13.90350, -413360, 1834.00000, -194.00000, 924.00000, 1.50909, -0.05493, -0.03052, -102.25800, 13.60450, 13400, 1838.00000, -191.00000, 923.00000, 1.44806, 0.00610, -0.03052, -101.95900, 13.00650, -13440, 1833.00000, -189.00000, 926.00000, 1.44806, 0.12817, -0.03052, -100.16500, 13.00650, -13480, 1837.00000, -188.00000, 924.00000, 1.50909, 0.00610, -0.03052, -100.16500, 13.00650, -45.44800
12984, 1832.00000, -194.00000, 924.00000, 1.44806, 0.12817, 0.03052, -103.60350, 11.66100, -413030, 1831.00000, -192.00000, 925.00000, 1.50909, 0.00610, -0.03052, -102.25800, 12.85700, -13070, 1834.00000, -192.00000, 925.00000, 1.38702, 0.00610, -0.09155, -102.25800, 13.60450, -13110, 1837.00000, -193.00000, 921.00000, 1.44806, 0.06714, -0.03052, -102.40750, 12.25900, -13150, 1835.00000, -191.00000, 924.00000, 1.50909, 0.06714, 0.03052, -102.40750, 12.70750, -413190, 1835.00000, -191.00000, 923.00000, 1.50909, 0.06714, -0.03052, -102.40750, 12.70750, -13230, 1832.00000, -190.00000, 925.00000, 1.44806, 0.00610, -0.03052, -102.40750, 12.70750, -13280, 1833.00000, -194.00000, 921.00000, 1.44806, 0.06714, -0.03052, -102.40750, 12.70750, -13320, 1833.00000, -195.00000, 923.00000, 1.44806, 0.12817, 0.03052, -101.06200, 13.90350, -413360, 1834.00000, -194.00000, 924.00000, 1.50909, -0.05493, -0.03052, -102.25800, 13.60450, 13400, 1838.00000, -191.00000, 923.00000, 1.44806, 0.00610, -0.03052, -101.95900, 13.00650, -13440, 1833.00000, -189.00000, 926.00000, 1.44806, 0.12817, -0.03052, -100.16500, 13.00650, -13480, 1837.00000, -188.00000, 924.00000, 1.50909, 0.00610, -0.03052, -100.16500, 13.00650, -45.44800
13030, 1831.00000, -192.00000, 925.00000, 1.50909, 0.00610, -0.03052, -102.25800, 12.85700, -13070, 1834.00000, -192.00000, 925.00000, 1.38702, 0.00610, -0.09155, -102.25800, 13.60450, -13110, 1837.00000, -193.00000, 921.00000, 1.44806, 0.06714, -0.03052, -102.40750, 12.25900, -13150, 1835.00000, -191.00000, 924.00000, 1.50909, 0.06714, 0.03052, -102.40750, 12.70750, -413190, 1835.00000, -191.00000, 923.00000, 1.50909, 0.06714, -0.03052, -102.40750, 12.70750, -13230, 1832.00000, -190.00000, 925.00000, 1.44806, 0.00610, -0.03052, -102.40750, 12.70750, -13280, 1833.00000, -194.00000, 921.00000, 1.44806, 0.06714, -0.03052, -102.40750, 12.70750, -13320, 1833.00000, -195.00000, 923.00000, 1.44806, 0.12817, 0.03052, -101.06200, 13.90350, -413360, 1834.00000, -194.00000, 924.00000, 1.50909, -0.05493, -0.03052, -102.25800, 13.60450, 13400, 1838.00000, -191.00000, 923.00000, 1.44806, 0.00610, -0.03052, -101.95900, 13.00650, -13440, 1833.00000, -189.00000, 926.00000, 1.44806, 0.12817, -0.03052, -100.16500, 13.00650, -13480, 1837.00000, -188.00000, 924.00000, 1.50909, 0.00610, -0.03052, -100.16500, 13.00650, -45.44800
13070, 1834.00000, -192.00000, 925.00000, 1.38702, 0.00610, -0.09155, -102.25800, 13.60450, -13110, 1837.00000, -193.00000, 921.00000, 1.44806, 0.06714, -0.03052, -102.40750, 12.25900, -13150, 1835.00000, -191.00000, 924.00000, 1.50909, 0.06714, 0.03052, -102.40750, 12.70750, -413190, 1835.00000, -191.00000, 923.00000, 1.50909, 0.06714, -0.03052, -102.40750, 12.70750, -13230, 1832.00000, -190.00000, 925.00000, 1.44806, 0.00610, -0.03052, -102.40750, 12.70750, -13280, 1833.00000, -194.00000, 921.00000, 1.44806, 0.06714, -0.03052, -102.40750, 12.70750, -13320, 1833.00000, -195.00000, 923.00000, 1.44806, 0.12817, 0.03052, -101.06200, 13.90350, -413360, 1834.00000, -194.00000, 924.00000, 1.50909, -0.05493, -0.03052, -102.25800, 13.60450, 13400, 1838.00000, -191.00000, 923.00000, 1.44806, 0.00610, -0.03052, -101.95900, 13.00650, -13440, 1833.00000, -189.00000, 926.00000, 1.44806, 0.12817, -0.03052, -100.16500, 13.00650, -13480, 1837.00000, -188.00000, 924.00000, 1.50909, 0.00610, -0.03052, -100.16500, 13.00650, -45.44800
13110, 1837.00000, -193.00000, 921.00000, 1.44806, 0.06714, -0.03052, -102.40750, 12.25900, -13150, 1835.00000, -191.00000, 924.00000, 1.50909, 0.06714, 0.03052, -102.40750, 12.70750, -413190, 1835.00000, -191.00000, 923.00000, 1.50909, 0.06714, -0.03052, -102.40750, 12.70750, -13230, 1832.00000, -190.00000, 925.00000, 1.44806, 0.00610, -0.03052, -102.40750, 12.70750, -13280, 1833.00000, -194.00000, 921.00000, 1.44806, 0.06714, -0.03052, -102.40750, 12.70750, -13320, 1833.00000, -195.00000, 923.00000, 1.44806, 0.12817, 0.03052, -101.06200, 13.90350, -413360, 1834.00000, -194.00000, 924.00000, 1.50909, -0.05493, -0.03052, -102.25800, 13.60450, 13400, 1838.00000, -191.00000, 923.00000, 1.44806, 0.00610, -0.03052, -101.95900, 13.00650, -13440, 1833.00000, -189.00000, 926.00000, 1.44806, 0.12817, -0.03052, -100.16500, 13.00650, -13480, 1837.00000, -188.00000, 924.00000, 1.50909, 0.00610, -0.03052, -100.16500, 13.00650, -45.44800
13150, 1835.00000, -191.00000, 924.00000, 1.50909, 0.06714, 0.03052, -102.40750, 12.70750, -413190, 1835.00000, -191.00000, 923.00000, 1.50909, 0.06714, -0.03052, -102.40750, 12.70750, -13230, 1832.00000, -190.00000, 925.00000, 1.44806, 0.00610, -0.03052, -102.40750, 12.70750, -13280, 1833.00000, -194.00000, 921.00000, 1.44806, 0.06714, -0.03052, -102.40750, 12.70750, -13320, 1833.00000, -195.00000, 923.00000, 1.44806, 0.12817, 0.03052, -101.06200, 13.90350, -413360, 1834.00000, -194.00000, 924.00000, 1.50909, -0.05493, -0.03052, -102.25800, 13.60450, 13400, 1838.00000, -191.00000, 923.00000, 1.44806, 0.00610, -0.03052, -101.95900, 13.00650, -13440, 1833.00000, -189.00000, 926.00000, 1.44806, 0.12817, -0.03052, -100.16500, 13.00650, -13480, 1837.00000, -188.00000, 924.00000, 1.50909, 0.00610, -0.03052, -100.16500, 13.00650, -45.44800
13190, 1835.00000, -191.00000, 923.00000, 1.50909, 0.06714, -0.03052, -102.40750, 12.70750, -13230, 1832.00000, -190.00000, 925.00000, 1.44806, 0.00610, -0.03052, -102.40750, 12.70750, -13280, 1833.00000, -194.00000, 921.00000, 1.44806, 0.06714, -0.03052, -102.40750, 12.70750, -13320, 1833.00000, -195.00000, 923.00000, 1.44806, 0.12817, 0.03052, -101.06200, 13.90350, -413360, 1834.00000, -194.00000, 924.00000, 1.50909, -0.05493, -0.03052, -102.25800, 13.60450, 13400, 1838.00000, -191.00000, 923.00000, 1.44806, 0.00610, -0.03052, -101.95900, 13.00650, -13440, 1833.00000, -189.00000, 926.00000, 1.44806, 0.12817, -0.03052, -100.16500, 13.00650, -13480, 1837.00000, -188.00000, 924.00000, 1.50909, 0.00610, -0.03052, -100.16500, 13.00650, -45.44800
13230, 1832.00000, -190.00000, 925.00000, 1.44806, 0.00610, -0.03052, -102.40750, 12.70750, -13280, 1833.00000, -194.00000, 921.00000, 1.44806, 0.06714, -0.03052, -102.40750, 12.70750, -13320, 1833.00000, -195.00000, 923.00000, 1.44806, 0.12817, 0.03052, -101.06200, 13.90350, -413360, 1834.00000, -194.00000, 924.00000, 1.50909, -0.05493, -0.03052, -102.25800, 13.60450, 13400, 1838.00000, -191.00000, 923.00000, 1.44806, 0.00610, -0.03052, -101.95900, 13.00650, -13440, 1833.00000, -189.00000, 926.00000, 1.44806, 0.12817, -0.03052, -100.16500, 13.00650, -13480, 1837.00000, -188.00000, 924.00000, 1.50909, 0.00610, -0.03052, -100.16500, 13.00650, -45.44800
