//--------- NEW START ---------//
// Drifter number: 1, Battery: 3.60
// IMU_update: 40 ms, GPS_update: 250 ms, Transciever_update: 8000 ms
// Accel_range: 16G, Gyro_range: 2000 dps
IMUtime, Ax, Ay, Az, Gx, Gy, Gz, Mx, My, Mz, P, T
8115, 1813.00000, -201.00000, 964.00000, 1.63116, -0.23804, -0.03052, -101.80950, 17.34200, -8155, 1814.00000, -205.00000, 961.00000, 1.57013, -0.11597, 0.03052, -101.80950, 17.34200, -38195, 1816.00000, -206.00000, 959.00000, 1.50909, -0.11597, -0.03052, -101.36100, 18.98650, -8235, 1819.00000, -207.00000, 964.00000, 1.63116, -0.23804, -0.15259, -101.51050, 17.64100, -8275, 1819.00000, -204.00000, 963.00000, 1.57013, -0.23804, -0.03052, -101.66000, 16.44500, -8315, 1817.00000, -205.00000, 966.00000, 1.63116, -0.11597, -0.03052, -102.25800, 18.08950, -8355, 1817.00000, -208.00000, 962.00000, 1.69220, -0.29907, -0.09155, -102.25800, 18.08950, -8417, 1817.00000, -204.00000, 959.00000, 1.81427, -0.66528, -0.21362, -102.25800, 18.08950, -8457, 1815.00000, -207.00000, 957.00000, 1.63116, -0.11597, 0.03052, -101.06200, 18.08950, -38497, 1818.00000, -203.00000, 959.00000, 1.57013, -0.17700, -0.09155, -101.06200, 18.08950, -8537, 1814.00000, -209.00000, 958.00000, 1.69220, -0.23804, -0.09155, -101.66000, 17.19250, -8577, 1816.00000, -201.00000, 954.00000, 1.81427, -0.54321, -0.27466, -102.40750, 17.94000, -8693, 1817.00000, -204.00000, 957.00000, 1.50909, 0.00610, 0.03052, -97.92250, 19.88350, -44.8733, 1821.00000, -201.00000, 952.00000, 1.57013, -0.17700, -0.03052, -97.92250, 19.88350, -48773, 1818.00000, -201.00000, 957.00000, 1.57013, -0.05493, 0.03052, -102.40750, 18.98650, -48813, 1817.00000, -202.00000, 958.00000, 1.44806, 0.06714, 0.03052, -101.80950, 18.08950, -418853, 1819.00000, -202.00000, 957.00000, 1.57013, -0.11597, -0.09155, -101.95900, 17.19250, -8915, 1817.00000, -201.00000, 959.00000, 1.50909, -0.05493, 0.03052, -97.47400, 18.83700, -458955, 1822.00000, -203.00000, 959.00000, 1.50909, 0.00610, 0.03052, -103.00550, 18.08950, -408995, 1817.00000, -204.00000, 954.00000, 1.50909, -0.05493, 0.03052, -103.00550, 18.08950, -49035, 1819.00000, -203.00000, 950.00000, 1.57013, -0.11597, -0.09155, -103.00550, 18.08950, -9075, 1823.00000, -203.00000, 951.00000, 1.57013, 0.00610, -0.03052, -102.40750, 17.49150, -49115, 1817.00000, -203.00000, 956.00000, 1.57013, -0.05493, -0.03052, -98.22150, 19.88350, -49166, 1817.00000, -204.00000, 956.00000, 1.57013, -0.05493, -0.03052, -98.22150, 19.88350, -49206, 1818.00000, -203.00000, 953.00000, 1.57013, -0.11597, -0.03052, -103.30450, 18.08950, -40.51450
8155, 1814.00000, -205.00000, 961.00000, 1.57013, -0.11597, 0.03052, -101.80950, 17.34200, -38195, 1816.00000, -206.00000, 959.00000, 1.50909, -0.11597, -0.03052, -101.36100, 18.98650, -8235, 1819.00000, -207.00000, 964.00000, 1.63116, -0.23804, -0.15259, -101.51050, 17.64100, -8275, 1819.00000, -204.00000, 963.00000, 1.57013, -0.23804, -0.03052, -101.66000, 16.44500, -8315, 1817.00000, -205.00000, 966.00000, 1.63116, -0.11597, -0.03052, -102.25800, 18.08950, -8355, 1817.00000, -208.00000, 962.00000, 1.69220, -0.29907, -0.09155, -102.25800, 18.08950, -8417, 1817.00000, -204.00000, 959.00000, 1.81427, -0.66528, -0.21362, -102.25800, 18.08950, -8457, 1815.00000, -207.00000, 957.00000, 1.63116, -0.11597, 0.03052, -101.06200, 18.08950, -38497, 1818.00000, -203.00000, 959.00000, 1.57013, -0.17700, -0.09155, -101.06200, 18.08950, -8537, 1814.00000, -209.00000, 958.00000, 1.69220, -0.23804, -0.09155, -101.66000, 17.19250, -8577, 1816.00000, -201.00000, 954.00000, 1.81427, -0.54321, -0.27466, -102.40750, 17.94000, -8693, 1817.00000, -204.00000, 957.00000, 1.50909, 0.00610, 0.03052, -97.92250, 19.88350, -44.8733, 1821.00000, -201.00000, 952.00000, 1.57013, -0.17700, -0.03052, -97.92250, 19.88350, -48773, 1818.00000, -201.00000, 957.00000, 1.57013, -0.05493, 0.03052, -102.40750, 18.98650, -48813, 1817.00000, -202.00000, 958.00000, 1.44806, 0.06714, 0.03052, -101.80950, 18.08950, -418853, 1819.00000, -202.00000, 957.00000, 1.57013, -0.11597, -0.09155, -101.95900, 17.19250, -8915, 1817.00000, -201.00000, 959.00000, 1.50909, -0.05493, 0.03052, -97.47400, 18.83700, -458955, 1822.00000, -203.00000, 959.00000, 1.50909, 0.00610, 0.03052, -103.00550, 18.08950, -408995, 1817.00000, -204.00000, 954.00000, 1.50909, -0.05493, 0.03052, -103.00550, 18.08950, -49035, 1819.00000, -203.00000, 950.00000, 1.57013, -0.11597, -0.09155, -103.00550, 18.08950, -9075, 1823.00000, -203.00000, 951.00000, 1.57013, 0.00610, -0.03052, -102.40750, 17.49150, -49115, 1817.00000, -203.00000, 956.00000, 1.57013, -0.05493, -0.03052, -98.22150, 19.88350, -49166, 1817.00000, -204.00000, 956.00000, 1.57013, -0.05493, -0.03052, -98.22150, 19.88350, -49206, 1818.00000, -203.00000, 953.00000, 1.57013, -0.11597, -0.03052, -103.30450, 18.08950, -40.51450
8195, 1816.00000, -206.00000, 959.00000, 1.50909, -0.11597, -0.03052, -101.36100, 18.98650, -8235, 1819.00000, -207.00000, 964.00000, 1.63116, -0.23804, -0.15259, -101.51050, 17.64100, -8275, 1819.00000, -204.00000, 963.00000, 1.57013, -0.23804, -0.03052, -101.66000, 16.44500, -8315, 1817.00000, -205.00000, 966.00000, 1.63116, -0.11597, -0.03052, -102.25800, 18.08950, -8355, 1817.00000, -208.00000, 962.00000, 1.69220, -0.29907, -0.09155, -102.25800, 18.08950, -8417, 1817.00000, -204.00000, 959.00000, 1.81427, -0.66528, -0.21362, -102.25800, 18.08950, -8457, 1815.00000, -207.00000, 957.00000, 1.63116, -0.11597, 0.03052, -101.06200, 18.08950, -38497, 1818.00000, -203.00000, 959.00000, 1.57013, -0.17700, -0.09155, -101.06200, 18.08950, -8537, 1814.00000, -209.00000, 958.00000, 1.69220, -0.23804, -0.09155, -101.66000, 17.19250, -8577, 1816.00000, -201.00000, 954.00000, 1.81427, -0.54321, -0.27466, -102.40750, 17.94000, -8693, 1817.00000, -204.00000, 957.00000, 1.50909, 0.00610, 0.03052, -97.92250, 19.88350, -44.8733, 1821.00000, -201.00000, 952.00000, 1.57013, -0.17700, -0.03052, -97.92250, 19.88350, -48773, 1818.00000, -201.00000, 957.00000, 1.57013, -0.05493, 0.03052, -102.40750, 18.98650, -48813, 1817.00000, -202.00000, 958.00000, 1.44806, 0.06714, 0.03052, -101.80950, 18.08950, -418853, 1819.00000, -202.00000, 957.00000, 1.57013, -0.11597, -0.09155, -101.95900, 17.19250, -8915, 1817.00000, -201.00000, 959.00000, 1.50909, -0.05493, 0.03052, -97.47400, 18.83700, -458955, 1822.00000, -203.00000, 959.00000, 1.50909, 0.00610, 0.03052, -103.00550, 18.08950, -408995, 1817.00000, -204.00000, 954.00000, 1.50909, -0.05493, 0.03052, -103.00550, 18.08950, -49035, 1819.00000, -203.00000, 950.00000, 1.57013, -0.11597, -0.09155, -103.00550, 18.08950, -9075, 1823.00000, -203.00000, 951.00000, 1.57013, 0.00610, -0.03052, -102.40750, 17.49150, -49115, 1817.00000, -203.00000, 956.00000, 1.57013, -0.05493, -0.03052, -98.22150, 19.88350, -49166, 1817.00000, -204.00000, 956.00000, 1.57013, -0.05493, -0.03052, -98.22150, 19.88350, -49206, 1818.00000, -203.00000, 953.00000, 1.57013, -0.11597, -0.03052, -103.30450, 18.08950, -40.51450
8235, 1819.00000, -207.00000, 964.00000, 1.63116, -0.23804, -0.15259, -101.51050, 17.64100, -8275, 1819.00000, -204.00000, 963.00000, 1.57013, -0.23804, -0.03052, -101.66000, 16.44500, -8315, 1817.00000, -205.00000, 966.00000, 1.63116, -0.11597, -0.03052, -102.25800, 18.08950, -8355, 1817.00000, -208.00000, 962.00000, 1.69220, -0.29907, -0.09155, -102.25800, 18.08950, -8417, 1817.00000, -204.00000, 959.00000, 1.81427, -0.66528, -0.21362, -102.25800, 18.08950, -8457, 1815.00000, -207.00000, 957.00000, 1.63116, -0.11597, 0.03052, -101.06200, 18.08950, -38497, 1818.00000, -203.00000, 959.00000, 1.57013, -0.17700, -0.09155, -101.06200, 18.08950, -8537, 1814.00000, -209.00000, 958.00000, 1.69220, -0.23804, -0.09155, -101.66000, 17.19250, -8577, 1816.00000, -201.00000, 954.00000, 1.81427, -0.54321, -0.27466, -102.40750, 17.94000, -8693, 1817.00000, -204.00000, 957.00000, 1.50909, 0.00610, 0.03052, -97.92250, 19.88350, -44.8733, 1821.00000, -201.00000, 952.00000, 1.57013, -0.17700, -0.03052, -97.92250, 19.88350, -48773, 1818.00000, -201.00000, 957.00000, 1.57013, -0.05493, 0.03052, -102.40750, 18.98650, -48813, 1817.00000, -202.00000, 958.00000, 1.44806, 0.06714, 0.03052, -101.80950, 18.08950, -418853, 1819.00000, -202.00000, 957.00000, 1.57013, -0.11597, -0.09155, -101.95900, 17.19250, -8915, 1817.00000, -201.00000, 959.00000, 1.50909, -0.05493, 0.03052, -97.47400, 18.83700, -458955, 1822.00000, -203.00000, 959.00000, 1.50909, 0.00610, 0.03052, -103.00550, 18.08950, -408995, 1817.00000, -204.00000, 954.00000, 1.50909, -0.05493, 0.03052, -103.00550, 18.08950, -49035, 1819.00000, -203.00000, 950.00000, 1.57013, -0.11597, -0.09155, -103.00550, 18.08950, -9075, 1823.00000, -203.00000, 951.00000, 1.57013, 0.00610, -0.03052, -102.40750, 17.49150, -49115, 1817.00000, -203.00000, 956.00000, 1.57013, -0.05493, -0.03052, -98.22150, 19.88350, -49166, 1817.00000, -204.00000, 956.00000, 1.57013, -0.05493, -0.03052, -98.22150, 19.88350, -49206, 1818.00000, -203.00000, 953.00000, 1.57013, -0.11597, -0.03052, -103.30450, 18.08950, -40.51450
8275, 1819.00000, -204.00000, 963.00000, 1.57013, -0.23804, -0.03052, -101.66000, 16.44500, -8315, 1817.00000, -205.00000, 966.00000, 1.63116, -0.11597, -0.03052, -102.25800, 18.08950, -8355, 1817.00000, -208.00000, 962.00000, 1.69220, -0.29907, -0.09155, -102.25800, 18.08950, -8417, 1817.00000, -204.00000, 959.00000, 1.81427, -0.66528, -0.21362, -102.25800, 18.08950, -8457, 1815.00000, -207.00000, 957.00000, 1.63116, -0.11597, 0.03052, -101.06200, 18.08950, -38497, 1818.00000, -203.00000, 959.00000, 1.57013, -0.17700, -0.09155, -101.06200, 18.08950, -8537, 1814.00000, -209.00000, 958.00000, 1.69220, -0.23804, -0.09155, -101.66000, 17.19250, -8577, 1816.00000, -201.00000, 954.00000, 1.81427, -0.54321, -0.27466, -102.40750, 17.94000, -8693, 1817.00000, -204.00000, 957.00000, 1.50909, 0.00610, 0.03052, -97.92250, 19.88350, -44.8733, 1821.00000, -201.00000, 952.00000, 1.57013, -0.17700, -0.03052, -97.92250, 19.88350, -48773, 1818.00000, -201.00000, 957.00000, 1.57013, -0.05493, 0.03052, -102.40750, 18.98650, -48813, 1817.00000, -202.00000, 958.00000, 1.44806, 0.06714, 0.03052, -101.80950, 18.08950, -418853, 1819.00000, -202.00000, 957.00000, 1.57013, -0.11597, -0.09155, -101.95900, 17.19250, -8915, 1817.00000, -201.00000, 959.00000, 1.50909, -0.05493, 0.03052, -97.47400, 18.83700, -458955, 1822.00000, -203.00000, 959.00000, 1.50909, 0.00610, 0.03052, -103.00550, 18.08950, -408995, 1817.00000, -204.00000, 954.00000, 1.50909, -0.05493, 0.03052, -103.00550, 18.08950, -49035, 1819.00000, -203.00000, 950.00000, 1.57013, -0.11597, -0.09155, -103.00550, 18.08950, -9075, 1823.00000, -203.00000, 951.00000, 1.57013, 0.00610, -0.03052, -102.40750, 17.49150, -49115, 1817.00000, -203.00000, 956.00000, 1.57013, -0.05493, -0.03052, -98.22150, 19.88350, -49166, 1817.00000, -204.00000, 956.00000, 1.57013, -0.05493, -0.03052, -98.22150, 19.88350, -49206, 1818.00000, -203.00000, 953.00000, 1.57013, -0.11597, -0.03052, -103.30450, 18.08950, -40.51450
8315, 1817.00000, -205.00000, 966.00000, 1.63116, -0.11597, -0.03052, -102.25800, 18.08950, -8355, 1817.00000, -208.00000, 962.00000, 1.69220, -0.29907, -0.09155, -102.25800, 18.08950, -8417, 1817.00000, -204.00000, 959.00000, 1.81427, -0.66528, -0.21362, -102.25800, 18.08950, -8457, 1815.00000, -207.00000, 957.00000, 1.63116, -0.11597, 0.03052, -101.06200, 18.08950, -38497, 1818.00000, -203.00000, 959.00000, 1.57013, -0.17700, -0.09155, -101.06200, 18.08950, -8537, 1814.00000, -209.00000, 958.00000, 1.69220, -0.23804, -0.09155, -101.66000, 17.19250, -8577, 1816.00000, -201.00000, 954.00000, 1.81427, -0.54321, -0.27466, -102.40750, 17.94000, -8693, 1817.00000, -204.00000, 957.00000, 1.50909, 0.00610, 0.03052, -97.92250, 19.88350, -44.8733, 1821.00000, -201.00000, 952.00000, 1.57013, -0.17700, -0.03052, -97.92250, 19.88350, -48773, 1818.00000, -201.00000, 957.00000, 1.57013, -0.05493, 0.03052, -102.40750, 18.98650, -48813, 1817.00000, -202.00000, 958.00000, 1.44806, 0.06714, 0.03052, -101.80950, 18.08950, -418853, 1819.00000, -202.00000, 957.00000, 1.57013, -0.11597, -0.09155, -101.95900, 17.19250, -8915, 1817.00000, -201.00000, 959.00000, 1.50909, -0.05493, 0.03052, -97.47400, 18.83700, -458955, 1822.00000, -203.00000, 959.00000, 1.50909, 0.00610, 0.03052, -103.00550, 18.08950, -408995, 1817.00000, -204.00000, 954.00000, 1.50909, -0.05493, 0.03052, -103.00550, 18.08950, -49035, 1819.00000, -203.00000, 950.00000, 1.57013, -0.11597, -0.09155, -103.00550, 18.08950, -9075, 1823.00000, -203.00000, 951.00000, 1.57013, 0.00610, -0.03052, -102.40750, 17.49150, -49115, 1817.00000, -203.00000, 956.00000, 1.57013, -0.05493, -0.03052, -98.22150, 19.88350, -49166, 1817.00000, -204.00000, 956.00000, 1.57013, -0.05493, -0.03052, -98.22150, 19.88350, -49206, 1818.00000, -203.00000, 953.00000, 1.57013, -0.11597, -0.03052, -103.30450, 18.08950, -40.51450
8355, 1817.00000, -208.00000, 962.00000, 1.69220, -0.29907, -0.09155, -102.25800, 18.08950, -8417, 1817.00000, -204.00000, 959.00000, 1.81427, -0.66528, -0.21362, -102.25800, 18.08950, -8457, 1815.00000, -207.00000, 957.00000, 1.63116, -0.11597, 0.03052, -101.06200, 18.08950, -38497, 1818.00000, -203.00000, 959.00000, 1.57013, -0.17700, -0.09155, -101.06200, 18.08950, -8537, 1814.00000, -209.00000, 958.00000, 1.69220, -0.23804, -0.09155, -101.66000, 17.19250, -8577, 1816.00000, -201.00000, 954.00000, 1.81427, -0.54321, -0.27466, -102.40750, 17.94000, -8693, 1817.00000, -204.00000, 957.00000, 1.50909, 0.00610, 0.03052, -97.92250, 19.88350, -44.8733, 1821.00000, -201.00000, 952.00000, 1.57013, -0.17700, -0.03052, -97.92250, 19.88350, -48773, 1818.00000, -201.00000, 957.00000, 1.57013, -0.05493, 0.03052, -102.40750, 18.98650, -48813, 1817.00000, -202.00000, 958.00000, 1.44806, 0.06714, 0.03052, -101.80950, 18.08950, -418853, 1819.00000, -202.00000, 957.00000, 1.57013, -0.11597, -0.09155, -101.95900, 17.19250, -8915, 1817.00000, -201.00000, 959.00000, 1.50909, -0.05493, 0.03052, -97.47400, 18.83700, -458955, 1822.00000, -203.00000, 959.00000, 1.50909, 0.00610, 0.03052, -103.00550, 18.08950, -408995, 1817.00000, -204.00000, 954.00000, 1.50909, -0.05493, 0.03052, -103.00550, 18.08950, -49035, 1819.00000, -203.00000, 950.00000, 1.57013, -0.11597, -0.09155, -103.00550, 18.08950, -9075, 1823.00000, -203.00000, 951.00000, 1.57013, 0.00610, -0.03052, -102.40750, 17.49150, -49115, 1817.00000, -203.00000, 956.00000, 1.57013, -0.05493, -0.03052, -98.22150, 19.88350, -49166, 1817.00000, -204.00000, 956.00000, 1.57013, -0.05493, -0.03052, -98.22150, 19.88350, -49206, 1818.00000, -203.00000, 953.00000, 1.57013, -0.11597, -0.03052, -103.30450, 18.08950, -40.51450
8417, 1817.00000, -204.00000, 959.00000, 1.81427, -0.66528, -0.21362, -102.25800, 18.08950, -8457, 1815.00000, -207.00000, 957.00000, 1.63116, -0.11597, 0.03052, -101.06200, 18.08950, -38497, 1818.00000, -203.00000, 959.00000, 1.57013, -0.17700, -0.09155, -101.06200, 18.08950, -8537, 1814.00000, -209.00000, 958.00000, 1.69220, -0.23804, -0.09155, -101.66000, 17.19250, -8577, 1816.00000, -201.00000, 954.00000, 1.81427, -0.54321, -0.27466, -102.40750, 17.94000, -8693, 1817.00000, -204.00000, 957.00000, 1.50909, 0.00610, 0.03052, -97.92250, 19.88350, -44.8733, 1821.00000, -201.00000, 952.00000, 1.57013, -0.17700, -0.03052, -97.92250, 19.88350, -48773, 1818.00000, -201.00000, 957.00000, 1.57013, -0.05493, 0.03052, -102.40750, 18.98650, -48813, 1817.00000, -202.00000, 958.00000, 1.44806, 0.06714, 0.03052, -101.80950, 18.08950, -418853, 1819.00000, -202.00000, 957.00000, 1.57013, -0.11597, -0.09155, -101.95900, 17.19250, -8915, 1817.00000, -201.00000, 959.00000, 1.50909, -0.05493, 0.03052, -97.47400, 18.83700, -458955, 1822.00000, -203.00000, 959.00000, 1.50909, 0.00610, 0.03052, -103.00550, 18.08950, -408995, 1817.00000, -204.00000, 954.00000, 1.50909, -0.05493, 0.03052, -103.00550, 18.08950, -49035, 1819.00000, -203.00000, 950.00000, 1.57013, -0.11597, -0.09155, -103.00550, 18.08950, -9075, 1823.00000, -203.00000, 951.00000, 1.57013, 0.00610, -0.03052, -102.40750, 17.49150, -49115, 1817.00000, -203.00000, 956.00000, 1.57013, -0.05493, -0.03052, -98.22150, 19.88350, -49166, 1817.00000, -204.00000, 956.00000, 1.57013, -0.05493, -0.03052, -98.22150, 19.88350, -49206, 1818.00000, -203.00000, 953.00000, 1.57013, -0.11597, -0.03052, -103.30450, 18.08950, -40.51450
8457, 1815.00000, -207.00000, 957.00000, 1.63116, -0.11597, 0.03052, -101.06200, 18.08950, -38497, 1818.00000, -203.00000, 959.00000, 1.57013, -0.17700, -0.09155, -101.06200, 18.08950, -8537, 1814.00000, -209.00000, 958.00000, 1.69220, -0.23804, -0.09155, -101.66000, 17.19250, -8577, 1816.00000, -201.00000, 954.00000, 1.81427, -0.54321, -0.27466, -102.40750, 17.94000, -8693, 1817.00000, -204.00000, 957.00000, 1.50909, 0.00610, 0.03052, -97.92250, 19.88350, -44.8733, 1821.00000, -201.00000, 952.00000, 1.57013, -0.17700, -0.03052, -97.92250, 19.88350, -48773, 1818.00000, -201.00000, 957.00000, 1.57013, -0.05493, 0.03052, -102.40750, 18.98650, -48813, 1817.00000, -202.00000, 958.00000, 1.44806, 0.06714, 0.03052, -101.80950, 18.08950, -418853, 1819.00000, -202.00000, 957.00000, 1.57013, -0.11597, -0.09155, -101.95900, 17.19250, -8915, 1817.00000, -201.00000, 959.00000, 1.50909, -0.05493, 0.03052, -97.47400, 18.83700, -458955, 1822.00000, -203.00000, 959.00000, 1.50909, 0.00610, 0.03052, -103.00550, 18.08950, -408995, 1817.00000, -204.00000, 954.00000, 1.50909, -0.05493, 0.03052, -103.00550, 18.08950, -49035, 1819.00000, -203.00000, 950.00000, 1.57013, -0.11597, -0.09155, -103.00550, 18.08950, -9075, 1823.00000, -203.00000, 951.00000, 1.57013, 0.00610, -0.03052, -102.40750, 17.49150, -49115, 1817.00000, -203.00000, 956.00000, 1.57013, -0.05493, -0.03052, -98.22150, 19.88350, -49166, 1817.00000, -204.00000, 956.00000, 1.57013, -0.05493, -0.03052, -98.22150, 19.88350, -49206, 1818.00000, -203.00000, 953.00000, 1.57013, -0.11597, -0.03052, -103.30450, 18.08950, -40.51450
8497, 1818.00000, -203.00000, 959.00000, 1.57013, -0.17700, -0.09155, -101.06200, 18.08950, -8537, 1814.00000, -209.00000, 958.00000, 1.69220, -0.23804, -0.09155, -101.66000, 17.19250, -8577, 1816.00000, -201.00000, 954.00000, 1.81427, -0.54321, -0.27466, -102.40750, 17.94000, -8693, 1817.00000, -204.00000, 957.00000, 1.50909, 0.00610, 0.03052, -97.92250, 19.88350, -44.8733, 1821.00000, -201.00000, 952.00000, 1.57013, -0.17700, -0.03052, -97.92250, 19.88350, -48773, 1818.00000, -201.00000, 957.00000, 1.57013, -0.05493, 0.03052, -102.40750, 18.98650, -48813, 1817.00000, -202.00000, 958.00000, 1.44806, 0.06714, 0.03052, -101.80950, 18.08950, -418853, 1819.00000, -202.00000, 957.00000, 1.57013, -0.11597, -0.09155, -101.95900, 17.19250, -8915, 1817.00000, -201.00000, 959.00000, 1.50909, -0.05493, 0.03052, -97.47400, 18.83700, -458955, 1822.00000, -203.00000, 959.00000, 1.50909, 0.00610, 0.03052, -103.00550, 18.08950, -408995, 1817.00000, -204.00000, 954.00000, 1.50909, -0.05493, 0.03052, -103.00550, 18.08950, -49035, 1819.00000, -203.00000, 950.00000, 1.57013, -0.11597, -0.09155, -103.00550, 18.08950, -9075, 1823.00000, -203.00000, 951.00000, 1.57013, 0.00610, -0.03052, -102.40750, 17.49150, -49115, 1817.00000, -203.00000, 956.00000, 1.57013, -0.05493, -0.03052, -98.22150, 19.88350, -49166, 1817.00000, -204.00000, 956.00000, 1.57013, -0.05493, -0.03052, -98.22150, 19.88350, -49206, 1818.00000, -203.00000, 953.00000, 1.57013, -0.11597, -0.03052, -103.30450, 18.08950, -40.51450
8537, 1814.00000, -209.00000, 958.00000, 1.69220, -0.23804, -0.09155, -101.66000, 17.19250, -8577, 1816.00000, -201.00000, 954.00000, 1.81427, -0.54321, -0.27466, -102.40750, 17.94000, -8693, 1817.00000, -204.00000, 957.00000, 1.50909, 0.00610, 0.03052, -97.92250, 19.88350, -44.8733, 1821.00000, -201.00000, 952.00000, 1.57013, -0.17700, -0.03052, -97.92250, 19.88350, -48773, 1818.00000, -201.00000, 957.00000, 1.57013, -0.05493, 0.03052, -102.40750, 18.98650, -48813, 1817.00000, -202.00000, 958.00000, 1.44806, 0.06714, 0.03052, -101.80950, 18.08950, -418853, 1819.00000, -202.00000, 957.00000, 1.57013, -0.11597, -0.09155, -101.95900, 17.19250, -8915, 1817.00000, -201.00000, 959.00000, 1.50909, -0.05493, 0.03052, -97.47400, 18.83700, -458955, 1822.00000, -203.00000, 959.00000, 1.50909, 0.00610, 0.03052, -103.00550, 18.08950, -408995, 1817.00000, -204.00000, 954.00000, 1.50909, -0.05493, 0.03052, -103.00550, 18.08950, -49035, 1819.00000, -203.00000, 950.00000, 1.57013, -0.11597, -0.09155, -103.00550, 18.08950, -9075, 1823.00000, -203.00000, 951.00000, 1.57013, 0.00610, -0.03052, -102.40750, 17.49150, -49115, 1817.00000, -203.00000, 956.00000, 1.57013, -0.05493, -0.03052, -98.22150, 19.88350, -49166, 1817.00000, -204.00000, 956.00000, 1.57013, -0.05493, -0.03052, -98.22150, 19.88350, -49206, 1818.00000, -203.00000, 953.00000, 1.57013, -0.11597, -0.03052, -103.30450, 18.08950, -40.51450
8577, 1816.00000, -201.00000, 954.00000, 1.81427, -0.54321, -0.27466, -102.40750, 17.94000, -8693, 1817.00000, -204.00000, 957.00000, 1.50909, 0.00610, 0.03052, -97.92250, 19.88350, -44.8733, 1821.00000, -201.00000, 952.00000, 1.57013, -0.17700, -0.03052, -97.92250, 19.88350, -48773, 1818.00000, -201.00000, 957.00000, 1.57013, -0.05493, 0.03052, -102.40750, 18.98650, -48813, 1817.00000, -202.00000, 958.00000, 1.44806, 0.06714, 0.03052, -101.80950, 18.08950, -418853, 1819.00000, -202.00000, 957.00000, 1.57013, -0.11597, -0.09155, -101.95900, 17.19250, -8915, 1817.00000, -201.00000, 959.00000, 1.50909, -0.05493, 0.03052, -97.47400, 18.83700, -458955, 1822.00000, -203.00000, 959.00000, 1.50909, 0.00610, 0.03052, -103.00550, 18.08950, -408995, 1817.00000, -204.00000, 954.00000, 1.50909, -0.05493, 0.03052, -103.00550, 18.08950, -49035, 1819.00000, -203.00000, 950.00000, 1.57013, -0.11597, -0.09155, -103.00550, 18.08950, -9075, 1823.00000, -203.00000, 951.00000, 1.57013, 0.00610, -0.03052, -102.40750, 17.49150, -49115, 1817.00000, -203.00000, 956.00000, 1.57013, -0.05493, -0.03052, -98.22150, 19.88350, -49166, 1817.00000, -204.00000, 956.00000, 1.57013, -0.05493, -0.03052, -98.22150, 19.88350, -49206, 1818.00000, -203.00000, 953.00000, 1.57013, -0.11597, -0.03052, -103.30450, 18.08950, -40.51450
8693, 1817.00000, -204.00000, 957.00000, 1.50909, 0.00610, 0.03052, -97.92250, 19.88350, -44.8733, 1821.00000, -201.00000, 952.00000, 1.57013, -0.17700, -0.03052, -97.92250, 19.88350, -48773, 1818.00000, -201.00000, 957.00000, 1.57013, -0.05493, 0.03052, -102.40750, 18.98650, -48813, 1817.00000, -202.00000, 958.00000, 1.44806, 0.06714, 0.03052, -101.80950, 18.08950, -418853, 1819.00000, -202.00000, 957.00000, 1.57013, -0.11597, -0.09155, -101.95900, 17.19250, -8915, 1817.00000, -201.00000, 959.00000, 1.50909, -0.05493, 0.03052, -97.47400, 18.83700, -458955, 1822.00000, -203.00000, 959.00000, 1.50909, 0.00610, 0.03052, -103.00550, 18.08950, -408995, 1817.00000, -204.00000, 954.00000, 1.50909, -0.05493, 0.03052, -103.00550, 18.08950, -49035, 1819.00000, -203.00000, 950.00000, 1.57013, -0.11597, -0.09155, -103.00550, 18.08950, -9075, 1823.00000, -203.00000, 951.00000, 1.57013, 0.00610, -0.03052, -102.40750, 17.49150, -49115, 1817.00000, -203.00000, 956.00000, 1.57013, -0.05493, -0.03052, -98.22150, 19.88350, -49166, 1817.00000, -204.00000, 956.00000, 1.57013, -0.05493, -0.03052, -98.22150, 19.88350, -49206, 1818.00000, -203.00000, 953.00000, 1.57013, -0.11597, -0.03052, -103.30450, 18.08950, -40.51450
8733, 1821.00000, -201.00000, 952.00000, 1.57013, -0.17700, -0.03052, -97.92250, 19.88350, -48773, 1818.00000, -201.00000, 957.00000, 1.57013, -0.05493, 0.03052, -102.40750, 18.98650, -48813, 1817.00000, -202.00000, 958.00000, 1.44806, 0.06714, 0.03052, -101.80950, 18.08950, -418853, 1819.00000, -202.00000, 957.00000, 1.57013, -0.11597, -0.09155, -101.95900, 17.19250, -8915, 1817.00000, -201.00000, 959.00000, 1.50909, -0.05493, 0.03052, -97.47400, 18.83700, -458955, 1822.00000, -203.00000, 959.00000, 1.50909, 0.00610, 0.03052, -103.00550, 18.08950, -408995, 1817.00000, -204.00000, 954.00000, 1.50909, -0.05493, 0.03052, -103.00550, 18.08950, -49035, 1819.00000, -203.00000, 950.00000, 1.57013, -0.11597, -0.09155, -103.00550, 18.08950, -9075, 1823.00000, -203.00000, 951.00000, 1.57013, 0.00610, -0.03052, -102.40750, 17.49150, -49115, 1817.00000, -203.00000, 956.00000, 1.57013, -0.05493, -0.03052, -98.22150, 19.88350, -49166, 1817.00000, -204.00000, 956.00000, 1.57013, -0.05493, -0.03052, -98.22150, 19.88350, -49206, 1818.00000, -203.00000, 953.00000, 1.57013, -0.11597, -0.03052, -103.30450, 18.08950, -40.51450
8773, 1818.00000, -201.00000, 957.00000, 1.57013, -0.05493, 0.03052, -102.40750, 18.98650, -48813, 1817.00000, -202.00000, 958.00000, 1.44806, 0.06714, 0.03052, -101.80950, 18.08950, -418853, 1819.00000, -202.00000, 957.00000, 1.57013, -0.11597, -0.09155, -101.95900, 17.19250, -8915, 1817.00000, -201.00000, 959.00000, 1.50909, -0.05493, 0.03052, -97.47400, 18.83700, -458955, 1822.00000, -203.00000, 959.00000, 1.50909, 0.00610, 0.03052, -103.00550, 18.08950, -408995, 1817.00000, -204.00000, 954.00000, 1.50909, -0.05493, 0.03052, -103.00550, 18.08950, -49035, 1819.00000, -203.00000, 950.00000, 1.57013, -0.11597, -0.09155, -103.00550, 18.08950, -9075, 1823.00000, -203.00000, 951.00000, 1.57013, 0.00610, -0.03052, -102.40750, 17.49150, -49115, 1817.00000, -203.00000, 956.00000, 1.57013, -0.05493, -0.03052, -98.22150, 19.88350, -49166, 1817.00000, -204.00000, 956.00000, 1.57013, -0.05493, -0.03052, -98.22150, 19.88350, -49206, 1818.00000, -203.00000, 953.00000, 1.57013, -0.11597, -0.03052, -103.30450, 18.08950, -40.51450
8813, 1817.00000, -202.00000, 958.00000, 1.44806, 0.06714, 0.03052, -101.80950, 18.08950, -418853, 1819.00000, -202.00000, 957.00000, 1.57013, -0.11597, -0.09155, -101.95900, 17.19250, -8915, 1817.00000, -201.00000, 959.00000, 1.50909, -0.05493, 0.03052, -97.47400, 18.83700, -458955, 1822.00000, -203.00000, 959.00000, 1.50909, 0.00610, 0.03052, -103.00550, 18.08950, -408995, 1817.00000, -204.00000, 954.00000, 1.50909, -0.05493, 0.03052, -103.00550, 18.08950, -49035, 1819.00000, -203.00000, 950.00000, 1.57013, -0.11597, -0.09155, -103.00550, 18.08950, -9075, 1823.00000, -203.00000, 951.00000, 1.57013, 0.00610, -0.03052, -102.40750, 17.49150, -49115, 1817.00000, -203.00000, 956.00000, 1.57013, -0.05493, -0.03052, -98.22150, 19.88350, -49166, 1817.00000, -204.00000, 956.00000, 1.57013, -0.05493, -0.03052, -98.22150, 19.88350, -49206, 1818.00000, -203.00000, 953.00000, 1.57013, -0.11597, -0.03052, -103.30450, 18.08950, -40.51450
8853, 1819.00000, -202.00000, 957.00000, 1.57013, -0.11597, -0.09155, -101.95900, 17.19250, -8915, 1817.00000, -201.00000, 959.00000, 1.50909, -0.05493, 0.03052, -97.47400, 18.83700, -458955, 1822.00000, -203.00000, 959.00000, 1.50909, 0.00610, 0.03052, -103.00550, 18.08950, -408995, 1817.00000, -204.00000, 954.00000, 1.50909, -0.05493, 0.03052, -103.00550, 18.08950, -49035, 1819.00000, -203.00000, 950.00000, 1.57013, -0.11597, -0.09155, -103.00550, 18.08950, -9075, 1823.00000, -203.00000, 951.00000, 1.57013, 0.00610, -0.03052, -102.40750, 17.49150, -49115, 1817.00000, -203.00000, 956.00000, 1.57013, -0.05493, -0.03052, -98.22150, 19.88350, -49166, 1817.00000, -204.00000, 956.00000, 1.57013, -0.05493, -0.03052, -98.22150, 19.88350, -49206, 1818.00000, -203.00000, 953.00000, 1.57013, -0.11597, -0.03052, -103.30450, 18.08950, -40.51450
8915, 1817.00000, -201.00000, 959.00000, 1.50909, -0.05493, 0.03052, -97.47400, 18.83700, -458955, 1822.00000, -203.00000, 959.00000, 1.50909, 0.00610, 0.03052, -103.00550, 18.08950, -408995, 1817.00000, -204.00000, 954.00000, 1.50909, -0.05493, 0.03052, -103.00550, 18.08950, -49035, 1819.00000, -203.00000, 950.00000, 1.57013, -0.11597, -0.09155, -103.00550, 18.08950, -9075, 1823.00000, -203.00000, 951.00000, 1.57013, 0.00610, -0.03052, -102.40750, 17.49150, -49115, 1817.00000, -203.00000, 956.00000, 1.57013, -0.05493, -0.03052, -98.22150, 19.88350, -49166, 1817.00000, -204.00000, 956.00000, 1.57013, -0.05493, -0.03052, -98.22150, 19.88350, -49206, 1818.00000, -203.00000, 953.00000, 1.57013, -0.11597, -0.03052, -103.30450, 18.08950, -40.51450
8955, 1822.00000, -203.00000, 959.00000, 1.50909, 0.00610, 0.03052, -103.00550, 18.08950, -408995, 1817.00000, -204.00000, 954.00000, 1.50909, -0.05493, 0.03052, -103.00550, 18.08950, -49035, 1819.00000, -203.00000, 950.00000, 1.57013, -0.11597, -0.09155, -103.00550, 18.08950, -9075, 1823.00000, -203.00000, 951.00000, 1.57013, 0.00610, -0.03052, -102.40750, 17.49150, -49115, 1817.00000, -203.00000, 956.00000, 1.57013, -0.05493, -0.03052, -98.22150, 19.88350, -49166, 1817.00000, -204.00000, 956.00000, 1.57013, -0.05493, -0.03052, -98.22150, 19.88350, -49206, 1818.00000, -203.00000, 953.00000, 1.57013, -0.11597, -0.03052, -103.30450, 18.08950, -40.51450
8995, 1817.00000, -204.00000, 954.00000, 1.50909, -0.05493, 0.03052, -103.00550, 18.08950, -49035, 1819.00000, -203.00000, 950.00000, 1.57013, -0.11597, -0.09155, -103.00550, 18.08950, -9075, 1823.00000, -203.00000, 951.00000, 1.57013, 0.00610, -0.03052, -102.40750, 17.49150, -49115, 1817.00000, -203.00000, 956.00000, 1.57013, -0.05493, -0.03052, -98.22150, 19.88350, -49166, 1817.00000, -204.00000, 956.00000, 1.57013, -0.05493, -0.03052, -98.22150, 19.88350, -49206, 1818.00000, -203.00000, 953.00000, 1.57013, -0.11597, -0.03052, -103.30450, 18.08950, -40.51450
9035, 1819.00000, -203.00000, 950.00000, 1.57013, -0.11597, -0.09155, -103.00550, 18.08950, -9075, 1823.00000, -203.00000, 951.00000, 1.57013, 0.00610, -0.03052, -102.40750, 17.49150, -49115, 1817.00000, -203.00000, 956.00000, 1.57013, -0.05493, -0.03052, -98.22150, 19.88350, -49166, 1817.00000, -204.00000, 956.00000, 1.57013, -0.05493, -0.03052, -98.22150, 19.88350, -49206, 1818.00000, -203.00000, 953.00000, 1.57013, -0.11597, -0.03052, -103.30450, 18.08950, -40.51450
9075, 1823.00000, -203.00000, 951.00000, 1.57013, 0.00610, -0.03052, -102.40750, 17.49150, -49115, 1817.00000, -203.00000, 956.00000, 1.57013, -0.05493, -0.03052, -98.22150, 19.88350, -49166, 1817.00000, -204.00000, 956.00000, 1.57013, -0.05493, -0.03052, -98.22150, 19.88350, -49206, 1818.00000, -203.00000, 953.00000, 1.57013, -0.11597, -0.03052, -103.30450, 18.08950, -40.51450
9115, 1817.00000, -203.00000, 956.00000, 1.57013, -0.05493, -0.03052, -98.22150, 19.88350, -49166, 1817.00000, -204.00000, 956.00000, 1.57013, -0.05493, -0.03052, -98.22150, 19.88350, -49206, 1818.00000, -203.00000, 953.00000, 1.57013, -0.11597, -0.03052, -103.30450, 18.08950, -40.51450
9166, 1817.00000, -204.00000, 956.00000, 1.57013, -0.05493, -0.03052, -98.22150, 19.88350, -49206, 1818.00000, -203.00000, 953.00000, 1.57013, -0.11597, -0.03052, -103.30450, 18.08950, -40.51450
9206, 1818.00000, -203.00000, 953.00000, 1.57013, -0.11597, -0.03052, -103.30450, 18.08950, -40.51450
9350, 1820.00000, -203.00000, 949.00000, 1.50909, -0.05493, -0.03052, -97.47400, 18.83700, -49401, 1820.00000, -203.00000, 949.00000, 1.50909, -0.05493, -0.03052, -97.47400, 18.83700, -49441, 1821.00000, -206.00000, 949.00000, 1.57013, -0.05493, -0.03052, -100.91250, 18.98650, -9481, 1819.00000, -204.00000, 953.00000, 1.44806, 0.06714, -0.03052, -100.91250, 18.98650, -49521, 1819.00000, -202.00000, 952.00000, 1.50909, -0.11597, -0.03052, -102.40750, 18.98650, -9561, 1817.00000, -200.00000, 952.00000, 1.57013, -0.11597, -0.03052, -102.55700, 16.89350, -9649, 1821.00000, -199.00000, 955.00000, 1.57013, -0.11597, -0.03052, -102.55700, 17.64100, -9689, 1820.00000, -201.00000, 951.00000, 1.50909, 0.00610, 0.03052, -101.66000, 17.49150, -399729, 1825.00000, -200.00000, 951.00000, 1.50909, -0.05493, -0.09155, -101.66000, 17.49150, -9769, 1821.00000, -196.00000, 949.00000, 1.50909, 0.00610, -0.03052, -101.95900, 17.94000, -39809, 1821.00000, -197.00000, 956.00000, 1.57013, 0.00610, -0.03052, -101.06200, 17.34200, -49849, 1820.00000, -201.00000, 953.00000, 1.63116, -0.23804, -0.09155, -102.70650, 17.19250, -9889, 1825.00000, -200.00000, 953.00000, 1.57013, -0.11597, -0.09155, -100.76300, 15.09950, -9929, 1821.00000, -201.00000, 949.00000, 1.63116, 0.00610, -0.03052, -100.76300, 15.09950, -49969, 1821.00000, -201.00000, 951.00000, 1.50909, 0.00610, -0.03052, -100.76300, 15.09950, -410009, 1824.00000, -200.00000, 954.00000, 1.50909, 0.00610, -0.03052, -100.76300, 15.09950, -10049, 1822.00000, -200.00000, 949.00000, 1.50909, -0.05493, -0.03052, -101.51050, 16.59450, 10089, 1824.00000, -197.00000, 949.00000, 1.50909, 0.00610, 0.03052, -101.06200, 18.08950, -410129, 1820.00000, -199.00000, 947.00000, 1.50909, 0.06714, 0.03052, -101.06200, 18.08950, -410169, 1822.00000, -200.00000, 950.00000, 1.50909, 0.00610, -0.03052, -101.36100, 16.44500, -10209, 1821.00000, -201.00000, 950.00000, 1.50909, 0.00610, -0.09155, -101.06200, 19.13600, -10249, 1822.00000, -199.00000, 949.00000, 1.50909, 0.00610, -0.03052, -100.16500, 17.19250, -10289, 1823.00000, -200.00000, 948.00000, 1.57013, -0.05493, -0.09155, -100.16500, 17.19250, 10329, 1821.00000, -199.00000, 949.00000, 1.50909, 0.00610, -0.03052, -101.36100, 16.44500, -10374, 1821.00000, -197.00000, 952.00000, 1.57013, 0.00610, 0.03052, -101.36100, 16.44500, -41.86000
9401, 1820.00000, -203.00000, 949.00000, 1.50909, -0.05493, -0.03052, -97.47400, 18.83700, -49441, 1821.00000, -206.00000, 949.00000, 1.57013, -0.05493, -0.03052, -100.91250, 18.98650, -9481, 1819.00000, -204.00000, 953.00000, 1.44806, 0.06714, -0.03052, -100.91250, 18.98650, -49521, 1819.00000, -202.00000, 952.00000, 1.50909, -0.11597, -0.03052, -102.40750, 18.98650, -9561, 1817.00000, -200.00000, 952.00000, 1.57013, -0.11597, -0.03052, -102.55700, 16.89350, -9649, 1821.00000, -199.00000, 955.00000, 1.57013, -0.11597, -0.03052, -102.55700, 17.64100, -9689, 1820.00000, -201.00000, 951.00000, 1.50909, 0.00610, 0.03052, -101.66000, 17.49150, -399729, 1825.00000, -200.00000, 951.00000, 1.50909, -0.05493, -0.09155, -101.66000, 17.49150, -9769, 1821.00000, -196.00000, 949.00000, 1.50909, 0.00610, -0.03052, -101.95900, 17.94000, -39809, 1821.00000, -197.00000, 956.00000, 1.57013, 0.00610, -0.03052, -101.06200, 17.34200, -49849, 1820.00000, -201.00000, 953.00000, 1.63116, -0.23804, -0.09155, -102.70650, 17.19250, -9889, 1825.00000, -200.00000, 953.00000, 1.57013, -0.11597, -0.09155, -100.76300, 15.09950, -9929, 1821.00000, -201.00000, 949.00000, 1.63116, 0.00610, -0.03052, -100.76300, 15.09950, -49969, 1821.00000, -201.00000, 951.00000, 1.50909, 0.00610, -0.03052, -100.76300, 15.09950, -410009, 1824.00000, -200.00000, 954.00000, 1.50909, 0.00610, -0.03052, -100.76300, 15.09950, -10049, 1822.00000, -200.00000, 949.00000, 1.50909, -0.05493, -0.03052, -101.51050, 16.59450, 10089, 1824.00000, -197.00000, 949.00000, 1.50909, 0.00610, 0.03052, -101.06200, 18.08950, -410129, 1820.00000, -199.00000, 947.00000, 1.50909, 0.06714, 0.03052, -101.06200, 18.08950, -410169, 1822.00000, -200.00000, 950.00000, 1.50909, 0.00610, -0.03052, -101.36100, 16.44500, -10209, 1821.00000, -201.00000, 950.00000, 1.50909, 0.00610, -0.09155, -101.06200, 19.13600, -10249, 1822.00000, -199.00000, 949.00000, 1.50909, 0.00610, -0.03052, -100.16500, 17.19250, -10289, 1823.00000, -200.00000, 948.00000, 1.57013, -0.05493, -0.09155, -100.16500, 17.19250, 10329, 1821.00000, -199.00000, 949.00000, 1.50909, 0.00610, -0.03052, -101.36100, 16.44500, -10374, 1821.00000, -197.00000, 952.00000, 1.57013, 0.00610, 0.03052, -101.36100, 16.44500, -41.86000
9441, 1821.00000, -206.00000, 949.00000, 1.57013, -0.05493, -0.03052, -100.91250, 18.98650, -9481, 1819.00000, -204.00000, 953.00000, 1.44806, 0.06714, -0.03052, -100.91250, 18.98650, -49521, 1819.00000, -202.00000, 952.00000, 1.50909, -0.11597, -0.03052, -102.40750, 18.98650, -9561, 1817.00000, -200.00000, 952.00000, 1.57013, -0.11597, -0.03052, -102.55700, 16.89350, -9649, 1821.00000, -199.00000, 955.00000, 1.57013, -0.11597, -0.03052, -102.55700, 17.64100, -9689, 1820.00000, -201.00000, 951.00000, 1.50909, 0.00610, 0.03052, -101.66000, 17.49150, -399729, 1825.00000, -200.00000, 951.00000, 1.50909, -0.05493, -0.09155, -101.66000, 17.49150, -9769, 1821.00000, -196.00000, 949.00000, 1.50909, 0.00610, -0.03052, -101.95900, 17.94000, -39809, 1821.00000, -197.00000, 956.00000, 1.57013, 0.00610, -0.03052, -101.06200, 17.34200, -49849, 1820.00000, -201.00000, 953.00000, 1.63116, -0.23804, -0.09155, -102.70650, 17.19250, -9889, 1825.00000, -200.00000, 953.00000, 1.57013, -0.11597, -0.09155, -100.76300, 15.09950, -9929, 1821.00000, -201.00000, 949.00000, 1.63116, 0.00610, -0.03052, -100.76300, 15.09950, -49969, 1821.00000, -201.00000, 951.00000, 1.50909, 0.00610, -0.03052, -100.76300, 15.09950, -410009, 1824.00000, -200.00000, 954.00000, 1.50909, 0.00610, -0.03052, -100.76300, 15.09950, -10049, 1822.00000, -200.00000, 949.00000, 1.50909, -0.05493, -0.03052, -101.51050, 16.59450, 10089, 1824.00000, -197.00000, 949.00000, 1.50909, 0.00610, 0.03052, -101.06200, 18.08950, -410129, 1820.00000, -199.00000, 947.00000, 1.50909, 0.06714, 0.03052, -101.06200, 18.08950, -410169, 1822.00000, -200.00000, 950.00000, 1.50909, 0.00610, -0.03052, -101.36100, 16.44500, -10209, 1821.00000, -201.00000, 950.00000, 1.50909, 0.00610, -0.09155, -101.06200, 19.13600, -10249, 1822.00000, -199.00000, 949.00000, 1.50909, 0.00610, -0.03052, -100.16500, 17.19250, -10289, 1823.00000, -200.00000, 948.00000, 1.57013, -0.05493, -0.09155, -100.16500, 17.19250, 10329, 1821.00000, -199.00000, 949.00000, 1.50909, 0.00610, -0.03052, -101.36100, 16.44500, -10374, 1821.00000, -197.00000, 952.00000, 1.57013, 0.00610, 0.03052, -101.36100, 16.44500, -41.86000
9481, 1819.00000, -204.00000, 953.00000, 1.44806, 0.06714, -0.03052, -100.91250, 18.98650, -49521, 1819.00000, -202.00000, 952.00000, 1.50909, -0.11597, -0.03052, -102.40750, 18.98650, -9561, 1817.00000, -200.00000, 952.00000, 1.57013, -0.11597, -0.03052, -102.55700, 16.89350, -9649, 1821.00000, -199.00000, 955.00000, 1.57013, -0.11597, -0.03052, -102.55700, 17.64100, -9689, 1820.00000, -201.00000, 951.00000, 1.50909, 0.00610, 0.03052, -101.66000, 17.49150, -399729, 1825.00000, -200.00000, 951.00000, 1.50909, -0.05493, -0.09155, -101.66000, 17.49150, -9769, 1821.00000, -196.00000, 949.00000, 1.50909, 0.00610, -0.03052, -101.95900, 17.94000, -39809, 1821.00000, -197.00000, 956.00000, 1.57013, 0.00610, -0.03052, -101.06200, 17.34200, -49849, 1820.00000, -201.00000, 953.00000, 1.63116, -0.23804, -0.09155, -102.70650, 17.19250, -9889, 1825.00000, -200.00000, 953.00000, 1.57013, -0.11597, -0.09155, -100.76300, 15.09950, -9929, 1821.00000, -201.00000, 949.00000, 1.63116, 0.00610, -0.03052, -100.76300, 15.09950, -49969, 1821.00000, -201.00000, 951.00000, 1.50909, 0.00610, -0.03052, -100.76300, 15.09950, -410009, 1824.00000, -200.00000, 954.00000, 1.50909, 0.00610, -0.03052, -100.76300, 15.09950, -10049, 1822.00000, -200.00000, 949.00000, 1.50909, -0.05493, -0.03052, -101.51050, 16.59450, 10089, 1824.00000, -197.00000, 949.00000, 1.50909, 0.00610, 0.03052, -101.06200, 18.08950, -410129, 1820.00000, -199.00000, 947.00000, 1.50909, 0.06714, 0.03052, -101.06200, 18.08950, -410169, 1822.00000, -200.00000, 950.00000, 1.50909, 0.00610, -0.03052, -101.36100, 16.44500, -10209, 1821.00000, -201.00000, 950.00000, 1.50909, 0.00610, -0.09155, -101.06200, 19.13600, -10249, 1822.00000, -199.00000, 949.00000, 1.50909, 0.00610, -0.03052, -100.16500, 17.19250, -10289, 1823.00000, -200.00000, 948.00000, 1.57013, -0.05493, -0.09155, -100.16500, 17.19250, 10329, 1821.00000, -199.00000, 949.00000, 1.50909, 0.00610, -0.03052, -101.36100, 16.44500, -10374, 1821.00000, -197.00000, 952.00000, 1.57013, 0.00610, 0.03052, -101.36100, 16.44500, -41.86000
9521, 1819.00000, -202.00000, 952.00000, 1.50909, -0.11597, -0.03052, -102.40750, 18.98650, -9561, 1817.00000, -200.00000, 952.00000, 1.57013, -0.11597, -0.03052, -102.55700, 16.89350, -9649, 1821.00000, -199.00000, 955.00000, 1.57013, -0.11597, -0.03052, -102.55700, 17.64100, -9689, 1820.00000, -201.00000, 951.00000, 1.50909, 0.00610, 0.03052, -101.66000, 17.49150, -399729, 1825.00000, -200.00000, 951.00000, 1.50909, -0.05493, -0.09155, -101.66000, 17.49150, -9769, 1821.00000, -196.00000, 949.00000, 1.50909, 0.00610, -0.03052, -101.95900, 17.94000, -39809, 1821.00000, -197.00000, 956.00000, 1.57013, 0.00610, -0.03052, -101.06200, 17.34200, -49849, 1820.00000, -201.00000, 953.00000, 1.63116, -0.23804, -0.09155, -102.70650, 17.19250, -9889, 1825.00000, -200.00000, 953.00000, 1.57013, -0.11597, -0.09155, -100.76300, 15.09950, -9929, 1821.00000, -201.00000, 949.00000, 1.63116, 0.00610, -0.03052, -100.76300, 15.09950, -49969, 1821.00000, -201.00000, 951.00000, 1.50909, 0.00610, -0.03052, -100.76300, 15.09950, -410009, 1824.00000, -200.00000, 954.00000, 1.50909, 0.00610, -0.03052, -100.76300, 15.09950, -10049, 1822.00000, -200.00000, 949.00000, 1.50909, -0.05493, -0.03052, -101.51050, 16.59450, 10089, 1824.00000, -197.00000, 949.00000, 1.50909, 0.00610, 0.03052, -101.06200, 18.08950, -410129, 1820.00000, -199.00000, 947.00000, 1.50909, 0.06714, 0.03052, -101.06200, 18.08950, -410169, 1822.00000, -200.00000, 950.00000, 1.50909, 0.00610, -0.03052, -101.36100, 16.44500, -10209, 1821.00000, -201.00000, 950.00000, 1.50909, 0.00610, -0.09155, -101.06200, 19.13600, -10249, 1822.00000, -199.00000, 949.00000, 1.50909, 0.00610, -0.03052, -100.16500, 17.19250, -10289, 1823.00000, -200.00000, 948.00000, 1.57013, -0.05493, -0.09155, -100.16500, 17.19250, 10329, 1821.00000, -199.00000, 949.00000, 1.50909, 0.00610, -0.03052, -101.36100, 16.44500, -10374, 1821.00000, -197.00000, 952.00000, 1.57013, 0.00610, 0.03052, -101.36100, 16.44500, -41.86000
9561, 1817.00000, -200.00000, 952.00000, 1.57013, -0.11597, -0.03052, -102.55700, 16.89350, -9649, 1821.00000, -199.00000, 955.00000, 1.57013, -0.11597, -0.03052, -102.55700, 17.64100, -9689, 1820.00000, -201.00000, 951.00000, 1.50909, 0.00610, 0.03052, -101.66000, 17.49150, -399729, 1825.00000, -200.00000, 951.00000, 1.50909, -0.05493, -0.09155, -101.66000, 17.49150, -9769, 1821.00000, -196.00000, 949.00000, 1.50909, 0.00610, -0.03052, -101.95900, 17.94000, -39809, 1821.00000, -197.00000, 956.00000, 1.57013, 0.00610, -0.03052, -101.06200, 17.34200, -49849, 1820.00000, -201.00000, 953.00000, 1.63116, -0.23804, -0.09155, -102.70650, 17.19250, -9889, 1825.00000, -200.00000, 953.00000, 1.57013, -0.11597, -0.09155, -100.76300, 15.09950, -9929, 1821.00000, -201.00000, 949.00000, 1.63116, 0.00610, -0.03052, -100.76300, 15.09950, -49969, 1821.00000, -201.00000, 951.00000, 1.50909, 0.00610, -0.03052, -100.76300, 15.09950, -410009, 1824.00000, -200.00000, 954.00000, 1.50909, 0.00610, -0.03052, -100.76300, 15.09950, -10049, 1822.00000, -200.00000, 949.00000, 1.50909, -0.05493, -0.03052, -101.51050, 16.59450, 10089, 1824.00000, -197.00000, 949.00000, 1.50909, 0.00610, 0.03052, -101.06200, 18.08950, -410129, 1820.00000, -199.00000, 947.00000, 1.50909, 0.06714, 0.03052, -101.06200, 18.08950, -410169, 1822.00000, -200.00000, 950.00000, 1.50909, 0.00610, -0.03052, -101.36100, 16.44500, -10209, 1821.00000, -201.00000, 950.00000, 1.50909, 0.00610, -0.09155, -101.06200, 19.13600, -10249, 1822.00000, -199.00000, 949.00000, 1.50909, 0.00610, -0.03052, -100.16500, 17.19250, -10289, 1823.00000, -200.00000, 948.00000, 1.57013, -0.05493, -0.09155, -100.16500, 17.19250, 10329, 1821.00000, -199.00000, 949.00000, 1.50909, 0.00610, -0.03052, -101.36100, 16.44500, -10374, 1821.00000, -197.00000, 952.00000, 1.57013, 0.00610, 0.03052, -101.36100, 16.44500, -41.86000
9649, 1821.00000, -199.00000, 955.00000, 1.57013, -0.11597, -0.03052, -102.55700, 17.64100, -9689, 1820.00000, -201.00000, 951.00000, 1.50909, 0.00610, 0.03052, -101.66000, 17.49150, -399729, 1825.00000, -200.00000, 951.00000, 1.50909, -0.05493, -0.09155, -101.66000, 17.49150, -9769, 1821.00000, -196.00000, 949.00000, 1.50909, 0.00610, -0.03052, -101.95900, 17.94000, -39809, 1821.00000, -197.00000, 956.00000, 1.57013, 0.00610, -0.03052, -101.06200, 17.34200, -49849, 1820.00000, -201.00000, 953.00000, 1.63116, -0.23804, -0.09155, -102.70650, 17.19250, -9889, 1825.00000, -200.00000, 953.00000, 1.57013, -0.11597, -0.09155, -100.76300, 15.09950, -9929, 1821.00000, -201.00000, 949.00000, 1.63116, 0.00610, -0.03052, -100.76300, 15.09950, -49969, 1821.00000, -201.00000, 951.00000, 1.50909, 0.00610, -0.03052, -100.76300, 15.09950, -410009, 1824.00000, -200.00000, 954.00000, 1.50909, 0.00610, -0.03052, -100.76300, 15.09950, -10049, 1822.00000, -200.00000, 949.00000, 1.50909, -0.05493, -0.03052, -101.51050, 16.59450, 10089, 1824.00000, -197.00000, 949.00000, 1.50909, 0.00610, 0.03052, -101.06200, 18.08950, -410129, 1820.00000, -199.00000, 947.00000, 1.50909, 0.06714, 0.03052, -101.06200, 18.08950, -410169, 1822.00000, -200.00000, 950.00000, 1.50909, 0.00610, -0.03052, -101.36100, 16.44500, -10209, 1821.00000, -201.00000, 950.00000, 1.50909, 0.00610, -0.09155, -101.06200, 19.13600, -10249, 1822.00000, -199.00000, 949.00000, 1.50909, 0.00610, -0.03052, -100.16500, 17.19250, -10289, 1823.00000, -200.00000, 948.00000, 1.57013, -0.05493, -0.09155, -100.16500, 17.19250, 10329, 1821.00000, -199.00000, 949.00000, 1.50909, 0.00610, -0.03052, -101.36100, 16.44500, -10374, 1821.00000, -197.00000, 952.00000, 1.57013, 0.00610, 0.03052, -101.36100, 16.44500, -41.86000
9689, 1820.00000, -201.00000, 951.00000, 1.50909, 0.00610, 0.03052, -101.66000, 17.49150, -399729, 1825.00000, -200.00000, 951.00000, 1.50909, -0.05493, -0.09155, -101.66000, 17.49150, -9769, 1821.00000, -196.00000, 949.00000, 1.50909, 0.00610, -0.03052, -101.95900, 17.94000, -39809, 1821.00000, -197.00000, 956.00000, 1.57013, 0.00610, -0.03052, -101.06200, 17.34200, -49849, 1820.00000, -201.00000, 953.00000, 1.63116, -0.23804, -0.09155, -102.70650, 17.19250, -9889, 1825.00000, -200.00000, 953.00000, 1.57013, -0.11597, -0.09155, -100.76300, 15.09950, -9929, 1821.00000, -201.00000, 949.00000, 1.63116, 0.00610, -0.03052, -100.76300, 15.09950, -49969, 1821.00000, -201.00000, 951.00000, 1.50909, 0.00610, -0.03052, -100.76300, 15.09950, -410009, 1824.00000, -200.00000, 954.00000, 1.50909, 0.00610, -0.03052, -100.76300, 15.09950, -10049, 1822.00000, -200.00000, 949.00000, 1.50909, -0.05493, -0.03052, -101.51050, 16.59450, 10089, 1824.00000, -197.00000, 949.00000, 1.50909, 0.00610, 0.03052, -101.06200, 18.08950, -410129, 1820.00000, -199.00000, 947.00000, 1.50909, 0.06714, 0.03052, -101.06200, 18.08950, -410169, 1822.00000, -200.00000, 950.00000, 1.50909, 0.00610, -0.03052, -101.36100, 16.44500, -10209, 1821.00000, -201.00000, 950.00000, 1.50909, 0.00610, -0.09155, -101.06200, 19.13600, -10249, 1822.00000, -199.00000, 949.00000, 1.50909, 0.00610, -0.03052, -100.16500, 17.19250, -10289, 1823.00000, -200.00000, 948.00000, 1.57013, -0.05493, -0.09155, -100.16500, 17.19250, 10329, 1821.00000, -199.00000, 949.00000, 1.50909, 0.00610, -0.03052, -101.36100, 16.44500, -10374, 1821.00000, -197.00000, 952.00000, 1.57013, 0.00610, 0.03052, -101.36100, 16.44500, -41.86000
9729, 1825.00000, -200.00000, 951.00000, 1.50909, -0.05493, -0.09155, -101.66000, 17.49150, -9769, 1821.00000, -196.00000, 949.00000, 1.50909, 0.00610, -0.03052, -101.95900, 17.94000, -39809, 1821.00000, -197.00000, 956.00000, 1.57013, 0.00610, -0.03052, -101.06200, 17.34200, -49849, 1820.00000, -201.00000, 953.00000, 1.63116, -0.23804, -0.09155, -102.70650, 17.19250, -9889, 1825.00000, -200.00000, 953.00000, 1.57013, -0.11597, -0.09155, -100.76300, 15.09950, -9929, 1821.00000, -201.00000, 949.00000, 1.63116, 0.00610, -0.03052, -100.76300, 15.09950, -49969, 1821.00000, -201.00000, 951.00000, 1.50909, 0.00610, -0.03052, -100.76300, 15.09950, -410009, 1824.00000, -200.00000, 954.00000, 1.50909, 0.00610, -0.03052, -100.76300, 15.09950, -10049, 1822.00000, -200.00000, 949.00000, 1.50909, -0.05493, -0.03052, -101.51050, 16.59450, 10089, 1824.00000, -197.00000, 949.00000, 1.50909, 0.00610, 0.03052, -101.06200, 18.08950, -410129, 1820.00000, -199.00000, 947.00000, 1.50909, 0.06714, 0.03052, -101.06200, 18.08950, -410169, 1822.00000, -200.00000, 950.00000, 1.50909, 0.00610, -0.03052, -101.36100, 16.44500, -10209, 1821.00000, -201.00000, 950.00000, 1.50909, 0.00610, -0.09155, -101.06200, 19.13600, -10249, 1822.00000, -199.00000, 949.00000, 1.50909, 0.00610, -0.03052, -100.16500, 17.19250, -10289, 1823.00000, -200.00000, 948.00000, 1.57013, -0.05493, -0.09155, -100.16500, 17.19250, 10329, 1821.00000, -199.00000, 949.00000, 1.50909, 0.00610, -0.03052, -101.36100, 16.44500, -10374, 1821.00000, -197.00000, 952.00000, 1.57013, 0.00610, 0.03052, -101.36100, 16.44500, -41.86000
9769, 1821.00000, -196.00000, 949.00000, 1.50909, 0.00610, -0.03052, -101.95900, 17.94000, -39809, 1821.00000, -197.00000, 956.00000, 1.57013, 0.00610, -0.03052, -101.06200, 17.34200, -49849, 1820.00000, -201.00000, 953.00000, 1.63116, -0.23804, -0.09155, -102.70650, 17.19250, -9889, 1825.00000, -200.00000, 953.00000, 1.57013, -0.11597, -0.09155, -100.76300, 15.09950, -9929, 1821.00000, -201.00000, 949.00000, 1.63116, 0.00610, -0.03052, -100.76300, 15.09950, -49969, 1821.00000, -201.00000, 951.00000, 1.50909, 0.00610, -0.03052, -100.76300, 15.09950, -410009, 1824.00000, -200.00000, 954.00000, 1.50909, 0.00610, -0.03052, -100.76300, 15.09950, -10049, 1822.00000, -200.00000, 949.00000, 1.50909, -0.05493, -0.03052, -101.51050, 16.59450, 10089, 1824.00000, -197.00000, 949.00000, 1.50909, 0.00610, 0.03052, -101.06200, 18.08950, -410129, 1820.00000, -199.00000, 947.00000, 1.50909, 0.06714, 0.03052, -101.06200, 18.08950, -410169, 1822.00000, -200.00000, 950.00000, 1.50909, 0.00610, -0.03052, -101.36100, 16.44500, -10209, 1821.00000, -201.00000, 950.00000, 1.50909, 0.00610, -0.09155, -101.06200, 19.13600, -10249, 1822.00000, -199.00000, 949.00000, 1.50909, 0.00610, -0.03052, -100.16500, 17.19250, -10289, 1823.00000, -200.00000, 948.00000, 1.57013, -0.05493, -0.09155, -100.16500, 17.19250, 10329, 1821.00000, -199.00000, 949.00000, 1.50909, 0.00610, -0.03052, -101.36100, 16.44500, -10374, 1821.00000, -197.00000, 952.00000, 1.57013, 0.00610, 0.03052, -101.36100, 16.44500, -41.86000
9809, 1821.00000, -197.00000, 956.00000, 1.57013, 0.00610, -0.03052, -101.06200, 17.34200, -49849, 1820.00000, -201.00000, 953.00000, 1.63116, -0.23804, -0.09155, -102.70650, 17.19250, -9889, 1825.00000, -200.00000, 953.00000, 1.57013, -0.11597, -0.09155, -100.76300, 15.09950, -9929, 1821.00000, -201.00000, 949.00000, 1.63116, 0.00610, -0.03052, -100.76300, 15.09950, -49969, 1821.00000, -201.00000, 951.00000, 1.50909, 0.00610, -0.03052, -100.76300, 15.09950, -410009, 1824.00000, -200.00000, 954.00000, 1.50909, 0.00610, -0.03052, -100.76300, 15.09950, -10049, 1822.00000, -200.00000, 949.00000, 1.50909, -0.05493, -0.03052, -101.51050, 16.59450, 10089, 1824.00000, -197.00000, 949.00000, 1.50909, 0.00610, 0.03052, -101.06200, 18.08950, -410129, 1820.00000, -199.00000, 947.00000, 1.50909, 0.06714, 0.03052, -101.06200, 18.08950, -410169, 1822.00000, -200.00000, 950.00000, 1.50909, 0.00610, -0.03052, -101.36100, 16.44500, -10209, 1821.00000, -201.00000, 950.00000, 1.50909, 0.00610, -0.09155, -101.06200, 19.13600, -10249, 1822.00000, -199.00000, 949.00000, 1.50909, 0.00610, -0.03052, -100.16500, 17.19250, -10289, 1823.00000, -200.00000, 948.00000, 1.57013, -0.05493, -0.09155, -100.16500, 17.19250, 10329, 1821.00000, -199.00000, 949.00000, 1.50909, 0.00610, -0.03052, -101.36100, 16.44500, -10374, 1821.00000, -197.00000, 952.00000, 1.57013, 0.00610, 0.03052, -101.36100, 16.44500, -41.86000
9849, 1820.00000, -201.00000, 953.00000, 1.63116, -0.23804, -0.09155, -102.70650, 17.19250, -9889, 1825.00000, -200.00000, 953.00000, 1.57013, -0.11597, -0.09155, -100.76300, 15.09950, -9929, 1821.00000, -201.00000, 949.00000, 1.63116, 0.00610, -0.03052, -100.76300, 15.09950, -49969, 1821.00000, -201.00000, 951.00000, 1.50909, 0.00610, -0.03052, -100.76300, 15.09950, -410009, 1824.00000, -200.00000, 954.00000, 1.50909, 0.00610, -0.03052, -100.76300, 15.09950, -10049, 1822.00000, -200.00000, 949.00000, 1.50909, -0.05493, -0.03052, -101.51050, 16.59450, 10089, 1824.00000, -197.00000, 949.00000, 1.50909, 0.00610, 0.03052, -101.06200, 18.08950, -410129, 1820.00000, -199.00000, 947.00000, 1.50909, 0.06714, 0.03052, -101.06200, 18.08950, -410169, 1822.00000, -200.00000, 950.00000, 1.50909, 0.00610, -0.03052, -101.36100, 16.44500, -10209, 1821.00000, -201.00000, 950.00000, 1.50909, 0.00610, -0.09155, -101.06200, 19.13600, -10249, 1822.00000, -199.00000, 949.00000, 1.50909, 0.00610, -0.03052, -100.16500, 17.19250, -10289, 1823.00000, -200.00000, 948.00000, 1.57013, -0.05493, -0.09155, -100.16500, 17.19250, 10329, 1821.00000, -199.00000, 949.00000, 1.50909, 0.00610, -0.03052, -101.36100, 16.44500, -10374, 1821.00000, -197.00000, 952.00000, 1.57013, 0.00610, 0.03052, -101.36100, 16.44500, -41.86000
9889, 1825.00000, -200.00000, 953.00000, 1.57013, -0.11597, -0.09155, -100.76300, 15.09950, -9929, 1821.00000, -201.00000, 949.00000, 1.63116, 0.00610, -0.03052, -100.76300, 15.09950, -49969, 1821.00000, -201.00000, 951.00000, 1.50909, 0.00610, -0.03052, -100.76300, 15.09950, -410009, 1824.00000, -200.00000, 954.00000, 1.50909, 0.00610, -0.03052, -100.76300, 15.09950, -10049, 1822.00000, -200.00000, 949.00000, 1.50909, -0.05493, -0.03052, -101.51050, 16.59450, 10089, 1824.00000, -197.00000, 949.00000, 1.50909, 0.00610, 0.03052, -101.06200, 18.08950, -410129, 1820.00000, -199.00000, 947.00000, 1.50909, 0.06714, 0.03052, -101.06200, 18.08950, -410169, 1822.00000, -200.00000, 950.00000, 1.50909, 0.00610, -0.03052, -101.36100, 16.44500, -10209, 1821.00000, -201.00000, 950.00000, 1.50909, 0.00610, -0.09155, -101.06200, 19.13600, -10249, 1822.00000, -199.00000, 949.00000, 1.50909, 0.00610, -0.03052, -100.16500, 17.19250, -10289, 1823.00000, -200.00000, 948.00000, 1.57013, -0.05493, -0.09155, -100.16500, 17.19250, 10329, 1821.00000, -199.00000, 949.00000, 1.50909, 0.00610, -0.03052, -101.36100, 16.44500, -10374, 1821.00000, -197.00000, 952.00000, 1.57013, 0.00610, 0.03052, -101.36100, 16.44500, -41.86000
9929, 1821.00000, -201.00000, 949.00000, 1.63116, 0.00610, -0.03052, -100.76300, 15.09950, -49969, 1821.00000, -201.00000, 951.00000, 1.50909, 0.00610, -0.03052, -100.76300, 15.09950, -410009, 1824.00000, -200.00000, 954.00000, 1.50909, 0.00610, -0.03052, -100.76300, 15.09950, -10049, 1822.00000, -200.00000, 949.00000, 1.50909, -0.05493, -0.03052, -101.51050, 16.59450, 10089, 1824.00000, -197.00000, 949.00000, 1.50909, 0.00610, 0.03052, -101.06200, 18.08950, -410129, 1820.00000, -199.00000, 947.00000, 1.50909, 0.06714, 0.03052, -101.06200, 18.08950, -410169, 1822.00000, -200.00000, 950.00000, 1.50909, 0.00610, -0.03052, -101.36100, 16.44500, -10209, 1821.00000, -201.00000, 950.00000, 1.50909, 0.00610, -0.09155, -101.06200, 19.13600, -10249, 1822.00000, -199.00000, 949.00000, 1.50909, 0.00610, -0.03052, -100.16500, 17.19250, -10289, 1823.00000, -200.00000, 948.00000, 1.57013, -0.05493, -0.09155, -100.16500, 17.19250, 10329, 1821.00000, -199.00000, 949.00000, 1.50909, 0.00610, -0.03052, -101.36100, 16.44500, -10374, 1821.00000, -197.00000, 952.00000, 1.57013, 0.00610, 0.03052, -101.36100, 16.44500, -41.86000
9969, 1821.00000, -201.00000, 951.00000, 1.50909, 0.00610, -0.03052, -100.76300, 15.09950, -410009, 1824.00000, -200.00000, 954.00000, 1.50909, 0.00610, -0.03052, -100.76300, 15.09950, -10049, 1822.00000, -200.00000, 949.00000, 1.50909, -0.05493, -0.03052, -101.51050, 16.59450, 10089, 1824.00000, -197.00000, 949.00000, 1.50909, 0.00610, 0.03052, -101.06200, 18.08950, -410129, 1820.00000, -199.00000, 947.00000, 1.50909, 0.06714, 0.03052, -101.06200, 18.08950, -410169, 1822.00000, -200.00000, 950.00000, 1.50909, 0.00610, -0.03052, -101.36100, 16.44500, -10209, 1821.00000, -201.00000, 950.00000, 1.50909, 0.00610, -0.09155, -101.06200, 19.13600, -10249, 1822.00000, -199.00000, 949.00000, 1.50909, 0.00610, -0.03052, -100.16500, 17.19250, -10289, 1823.00000, -200.00000, 948.00000, 1.57013, -0.05493, -0.09155, -100.16500, 17.19250, 10329, 1821.00000, -199.00000, 949.00000, 1.50909, 0.00610, -0.03052, -101.36100, 16.44500, -10374, 1821.00000, -197.00000, 952.00000, 1.57013, 0.00610, 0.03052, -101.36100, 16.44500, -41.86000
10009, 1824.00000, -200.00000, 954.00000, 1.50909, 0.00610, -0.03052, -100.76300, 15.09950, -10049, 1822.00000, -200.00000, 949.00000, 1.50909, -0.05493, -0.03052, -101.51050, 16.59450, 10089, 1824.00000, -197.00000, 949.00000, 1.50909, 0.00610, 0.03052, -101.06200, 18.08950, -410129, 1820.00000, -199.00000, 947.00000, 1.50909, 0.06714, 0.03052, -101.06200, 18.08950, -410169, 1822.00000, -200.00000, 950.00000, 1.50909, 0.00610, -0.03052, -101.36100, 16.44500, -10209, 1821.00000, -201.00000, 950.00000, 1.50909, 0.00610, -0.09155, -101.06200, 19.13600, -10249, 1822.00000, -199.00000, 949.00000, 1.50909, 0.00610, -0.03052, -100.16500, 17.19250, -10289, 1823.00000, -200.00000, 948.00000, 1.57013, -0.05493, -0.09155, -100.16500, 17.19250, 10329, 1821.00000, -199.00000, 949.00000, 1.50909, 0.00610, -0.03052, -101.36100, 16.44500, -10374, 1821.00000, -197.00000, 952.00000, 1.57013, 0.00610, 0.03052, -101.36100, 16.44500, -41.86000
10049, 1822.00000, -200.00000, 949.00000, 1.50909, -0.05493, -0.03052, -101.51050, 16.59450, 10089, 1824.00000, -197.00000, 949.00000, 1.50909, 0.00610, 0.03052, -101.06200, 18.08950, -410129, 1820.00000, -199.00000, 947.00000, 1.50909, 0.06714, 0.03052, -101.06200, 18.08950, -410169, 1822.00000, -200.00000, 950.00000, 1.50909, 0.00610, -0.03052, -101.36100, 16.44500, -10209, 1821.00000, -201.00000, 950.00000, 1.50909, 0.00610, -0.09155, -101.06200, 19.13600, -10249, 1822.00000, -199.00000, 949.00000, 1.50909, 0.00610, -0.03052, -100.16500, 17.19250, -10289, 1823.00000, -200.00000, 948.00000, 1.57013, -0.05493, -0.09155, -100.16500, 17.19250, 10329, 1821.00000, -199.00000, 949.00000, 1.50909, 0.00610, -0.03052, -101.36100, 16.44500, -10374, 1821.00000, -197.00000, 952.00000, 1.57013, 0.00610, 0.03052, -101.36100, 16.44500, -41.86000
10089, 1824.00000, -197.00000, 949.00000, 1.50909, 0.00610, 0.03052, -101.06200, 18.08950, -410129, 1820.00000, -199.00000, 947.00000, 1.50909, 0.06714, 0.03052, -101.06200, 18.08950, -410169, 1822.00000, -200.00000, 950.00000, 1.50909, 0.00610, -0.03052, -101.36100, 16.44500, -10209, 1821.00000, -201.00000, 950.00000, 1.50909, 0.00610, -0.09155, -101.06200, 19.13600, -10249, 1822.00000, -199.00000, 949.00000, 1.50909, 0.00610, -0.03052, -100.16500, 17.19250, -10289, 1823.00000, -200.00000, 948.00000, 1.57013, -0.05493, -0.09155, -100.16500, 17.19250, 10329, 1821.00000, -199.00000, 949.00000, 1.50909, 0.00610, -0.03052, -101.36100, 16.44500, -10374, 1821.00000, -197.00000, 952.00000, 1.57013, 0.00610, 0.03052, -101.36100, 16.44500, -41.86000
10129, 1820.00000, -199.00000, 947.00000, 1.50909, 0.06714, 0.03052, -101.06200, 18.08950, -410169, 1822.00000, -200.00000, 950.00000, 1.50909, 0.00610, -0.03052, -101.36100, 16.44500, -10209, 1821.00000, -201.00000, 950.00000, 1.50909, 0.00610, -0.09155, -101.06200, 19.13600, -10249, 1822.00000, -199.00000, 949.00000, 1.50909, 0.00610, -0.03052, -100.16500, 17.19250, -10289, 1823.00000, -200.00000, 948.00000, 1.57013, -0.05493, -0.09155, -100.16500, 17.19250, 10329, 1821.00000, -199.00000, 949.00000, 1.50909, 0.00610, -0.03052, -101.36100, 16.44500, -10374, 1821.00000, -197.00000, 952.00000, 1.57013, 0.00610, 0.03052, -101.36100, 16.44500, -41.86000
10169, 1822.00000, -200.00000, 950.00000, 1.50909, 0.00610, -0.03052, -101.36100, 16.44500, -10209, 1821.00000, -201.00000, 950.00000, 1.50909, 0.00610, -0.09155, -101.06200, 19.13600, -10249, 1822.00000, -199.00000, 949.00000, 1.50909, 0.00610, -0.03052, -100.16500, 17.19250, -10289, 1823.00000, -200.00000, 948.00000, 1.57013, -0.05493, -0.09155, -100.16500, 17.19250, 10329, 1821.00000, -199.00000, 949.00000, 1.50909, 0.00610, -0.03052, -101.36100, 16.44500, -10374, 1821.00000, -197.00000, 952.00000, 1.57013, 0.00610, 0.03052, -101.36100, 16.44500, -41.86000
10209, 1821.00000, -201.00000, 950.00000, 1.50909, 0.00610, -0.09155, -101.06200, 19.13600, -10249, 1822.00000, -199.00000, 949.00000, 1.50909, 0.00610, -0.03052, -100.16500, 17.19250, -10289, 1823.00000, -200.00000, 948.00000, 1.57013, -0.05493, -0.09155, -100.16500, 17.19250, 10329, 1821.00000, -199.00000, 949.00000, 1.50909, 0.00610, -0.03052, -101.36100, 16.44500, -10374, 1821.00000, -197.00000, 952.00000, 1.57013, 0.00610, 0.03052, -101.36100, 16.44500, -41.86000
10249, 1822.00000, -199.00000, 949.00000, 1.50909, 0.00610, -0.03052, -100.16500, 17.19250, -10289, 1823.00000, -200.00000, 948.00000, 1.57013, -0.05493, -0.09155, -100.16500, 17.19250, 10329, 1821.00000, -199.00000, 949.00000, 1.50909, 0.00610, -0.03052, -101.36100, 16.44500, -10374, 1821.00000, -197.00000, 952.00000, 1.57013, 0.00610, 0.03052, -101.36100, 16.44500, -41.86000
10289, 1823.00000, -200.00000, 948.00000, 1.57013, -0.05493, -0.09155, -100.16500, 17.19250, 10329, 1821.00000, -199.00000, 949.00000, 1.50909, 0.00610, -0.03052, -101.36100, 16.44500, -10374, 1821.00000, -197.00000, 952.00000, 1.57013, 0.00610, 0.03052, -101.36100, 16.44500, -41.86000
10329, 1821.00000, -199.00000, 949.00000, 1.50909, 0.00610, -0.03052, -101.36100, 16.44500, -10374, 1821.00000, -197.00000, 952.00000, 1.57013, 0.00610, 0.03052, -101.36100, 16.44500, -41.86000
10374, 1821.00000, -197.00000, 952.00000, 1.57013, 0.00610, 0.03052, -101.36100, 16.44500, -41.86000
10490, 1822.00000, -200.00000, 951.00000, 1.44806, 0.00610, 0.03052, -100.61349, 18.23900, -410530, 1822.00000, -201.00000, 951.00000, 1.50909, -0.05493, -0.03052, -102.55700, 18.38850, 10570, 1824.00000, -196.00000, 946.00000, 1.50909, -0.11597, -0.03052, -102.55700, 18.38850, 10610, 1823.00000, -196.00000, 949.00000, 1.44806, -0.05493, 0.03052, -102.55700, 18.38850, -10650, 1824.00000, -199.00000, 950.00000, 1.50909, 0.00610, -0.09155, -103.15500, 16.74400, -10690, 1827.00000, -195.00000, 949.00000, 1.57013, -0.11597, -0.09155, -101.95900, 17.49150, 10730, 1827.00000, -199.00000, 948.00000, 1.69220, -0.17700, -0.03052, -102.70650, 17.94000, 10770, 1824.00000, -203.00000, 944.00000, 1.57013, -0.11597, -0.09155, -102.70650, 17.94000, 10810, 1824.00000, -195.00000, 946.00000, 1.63116, -0.05493, -0.03052, -100.46400, 17.64100, 10850, 1825.00000, -197.00000, 947.00000, 1.50909, 0.00610, -0.03052, -101.51050, 16.59450, -10890, 1826.00000, -198.00000, 951.00000, 1.50909, -0.05493, -0.09155, -101.51050, 16.59450, 10930, 1825.00000, -199.00000, 946.00000, 1.57013, -0.05493, -0.03052, -101.51050, 16.59450, 10970, 1824.00000, -197.00000, 943.00000, 1.57013, 0.00610, 0.09155, -100.76300, 17.34200, -411015, 1827.00000, -197.00000, 945.00000, 1.57013, 0.00610, -0.03052, -100.76300, 17.34200, -11055, 1825.00000, -197.00000, 942.00000, 1.50909, -0.05493, -0.03052, -98.96900, 18.08950, -11095, 1824.00000, -197.00000, 943.00000, 1.50909, -0.05493, -0.03052, -101.80950, 18.38850, 11135, 1824.00000, -200.00000, 945.00000, 1.57013, 0.00610, -0.03052, -101.51050, 18.83700, -11175, 1825.00000, -199.00000, 945.00000, 1.50909, 0.00610, -0.03052, -100.76300, 17.64100, -11215, 1824.00000, -197.00000, 941.00000, 1.50909, 0.00610, 0.09155, -100.76300, 17.64100, -411263, 1818.00000, -199.00000, 942.00000, 1.44806, -0.05493, 0.03052, -100.76300, 17.64100, -11303, 1826.00000, -192.00000, 943.00000, 1.50909, -0.05493, 0.09155, -100.16500, 19.73400, -11343, 1824.00000, -193.00000, 944.00000, 1.38702, -0.17700, -0.03052, -101.66000, 17.94000, 11383, 1822.00000, -201.00000, 941.00000, 1.44806, -0.05493, 0.09155, -100.61349, 17.49150, -11423, 1824.00000, -196.00000, 942.00000, 1.44806, -0.11597, -0.03052, -101.06200, 18.38850, 11463, 1823.00000, -196.00000, 946.00000, 1.38702, 0.06714, 0.03052, -101.06200, 18.38850, -40.21550
10530, 1822.00000, -201.00000, 951.00000, 1.50909, -0.05493, -0.03052, -102.55700, 18.38850, 10570, 1824.00000, -196.00000, 946.00000, 1.50909, -0.11597, -0.03052, -102.55700, 18.38850, 10610, 1823.00000, -196.00000, 949.00000, 1.44806, -0.05493, 0.03052, -102.55700, 18.38850, -10650, 1824.00000, -199.00000, 950.00000, 1.50909, 0.00610, -0.09155, -103.15500, 16.74400, -10690, 1827.00000, -195.00000, 949.00000, 1.57013, -0.11597, -0.09155, -101.95900, 17.49150, 10730, 1827.00000, -199.00000, 948.00000, 1.69220, -0.17700, -0.03052, -102.70650, 17.94000, 10770, 1824.00000, -203.00000, 944.00000, 1.57013, -0.11597, -0.09155, -102.70650, 17.94000, 10810, 1824.00000, -195.00000, 946.00000, 1.63116, -0.05493, -0.03052, -100.46400, 17.64100, 10850, 1825.00000, -197.00000, 947.00000, 1.50909, 0.00610, -0.03052, -101.51050, 16.59450, -10890, 1826.00000, -198.00000, 951.00000, 1.50909, -0.05493, -0.09155, -101.51050, 16.59450, 10930, 1825.00000, -199.00000, 946.00000, 1.57013, -0.05493, -0.03052, -101.51050, 16.59450, 10970, 1824.00000, -197.00000, 943.00000, 1.57013, 0.00610, 0.09155, -100.76300, 17.34200, -411015, 1827.00000, -197.00000, 945.00000, 1.57013, 0.00610, -0.03052, -100.76300, 17.34200, -11055, 1825.00000, -197.00000, 942.00000, 1.50909, -0.05493, -0.03052, -98.96900, 18.08950, -11095, 1824.00000, -197.00000, 943.00000, 1.50909, -0.05493, -0.03052, -101.80950, 18.38850, 11135, 1824.00000, -200.00000, 945.00000, 1.57013, 0.00610, -0.03052, -101.51050, 18.83700, -11175, 1825.00000, -199.00000, 945.00000, 1.50909, 0.00610, -0.03052, -100.76300, 17.64100, -11215, 1824.00000, -197.00000, 941.00000, 1.50909, 0.00610, 0.09155, -100.76300, 17.64100, -411263, 1818.00000, -199.00000, 942.00000, 1.44806, -0.05493, 0.03052, -100.76300, 17.64100, -11303, 1826.00000, -192.00000, 943.00000, 1.50909, -0.05493, 0.09155, -100.16500, 19.73400, -11343, 1824.00000, -193.00000, 944.00000, 1.38702, -0.17700, -0.03052, -101.66000, 17.94000, 11383, 1822.00000, -201.00000, 941.00000, 1.44806, -0.05493, 0.09155, -100.61349, 17.49150, -11423, 1824.00000, -196.00000, 942.00000, 1.44806, -0.11597, -0.03052, -101.06200, 18.38850, 11463, 1823.00000, -196.00000, 946.00000, 1.38702, 0.06714, 0.03052, -101.06200, 18.38850, -40.21550
10570, 1824.00000, -196.00000, 946.00000, 1.50909, -0.11597, -0.03052, -102.55700, 18.38850, 10610, 1823.00000, -196.00000, 949.00000, 1.44806, -0.05493, 0.03052, -102.55700, 18.38850, -10650, 1824.00000, -199.00000, 950.00000, 1.50909, 0.00610, -0.09155, -103.15500, 16.74400, -10690, 1827.00000, -195.00000, 949.00000, 1.57013, -0.11597, -0.09155, -101.95900, 17.49150, 10730, 1827.00000, -199.00000, 948.00000, 1.69220, -0.17700, -0.03052, -102.70650, 17.94000, 10770, 1824.00000, -203.00000, 944.00000, 1.57013, -0.11597, -0.09155, -102.70650, 17.94000, 10810, 1824.00000, -195.00000, 946.00000, 1.63116, -0.05493, -0.03052, -100.46400, 17.64100, 10850, 1825.00000, -197.00000, 947.00000, 1.50909, 0.00610, -0.03052, -101.51050, 16.59450, -10890, 1826.00000, -198.00000, 951.00000, 1.50909, -0.05493, -0.09155, -101.51050, 16.59450, 10930, 1825.00000, -199.00000, 946.00000, 1.57013, -0.05493, -0.03052, -101.51050, 16.59450, 10970, 1824.00000, -197.00000, 943.00000, 1.57013, 0.00610, 0.09155, -100.76300, 17.34200, -411015, 1827.00000, -197.00000, 945.00000, 1.57013, 0.00610, -0.03052, -100.76300, 17.34200, -11055, 1825.00000, -197.00000, 942.00000, 1.50909, -0.05493, -0.03052, -98.96900, 18.08950, -11095, 1824.00000, -197.00000, 943.00000, 1.50909, -0.05493, -0.03052, -101.80950, 18.38850, 11135, 1824.00000, -200.00000, 945.00000, 1.57013, 0.00610, -0.03052, -101.51050, 18.83700, -11175, 1825.00000, -199.00000, 945.00000, 1.50909, 0.00610, -0.03052, -100.76300, 17.64100, -11215, 1824.00000, -197.00000, 941.00000, 1.50909, 0.00610, 0.09155, -100.76300, 17.64100, -411263, 1818.00000, -199.00000, 942.00000, 1.44806, -0.05493, 0.03052, -100.76300, 17.64100, -11303, 1826.00000, -192.00000, 943.00000, 1.50909, -0.05493, 0.09155, -100.16500, 19.73400, -11343, 1824.00000, -193.00000, 944.00000, 1.38702, -0.17700, -0.03052, -101.66000, 17.94000, 11383, 1822.00000, -201.00000, 941.00000, 1.44806, -0.05493, 0.09155, -100.61349, 17.49150, -11423, 1824.00000, -196.00000, 942.00000, 1.44806, -0.11597, -0.03052, -101.06200, 18.38850, 11463, 1823.00000, -196.00000, 946.00000, 1.38702, 0.06714, 0.03052, -101.06200, 18.38850, -40.21550
10610, 1823.00000, -196.00000, 949.00000, 1.44806, -0.05493, 0.03052, -102.55700, 18.38850, -10650, 1824.00000, -199.00000, 950.00000, 1.50909, 0.00610, -0.09155, -103.15500, 16.74400, -10690, 1827.00000, -195.00000, 949.00000, 1.57013, -0.11597, -0.09155, -101.95900, 17.49150, 10730, 1827.00000, -199.00000, 948.00000, 1.69220, -0.17700, -0.03052, -102.70650, 17.94000, 10770, 1824.00000, -203.00000, 944.00000, 1.57013, -0.11597, -0.09155, -102.70650, 17.94000, 10810, 1824.00000, -195.00000, 946.00000, 1.63116, -0.05493, -0.03052, -100.46400, 17.64100, 10850, 1825.00000, -197.00000, 947.00000, 1.50909, 0.00610, -0.03052, -101.51050, 16.59450, -10890, 1826.00000, -198.00000, 951.00000, 1.50909, -0.05493, -0.09155, -101.51050, 16.59450, 10930, 1825.00000, -199.00000, 946.00000, 1.57013, -0.05493, -0.03052, -101.51050, 16.59450, 10970, 1824.00000, -197.00000, 943.00000, 1.57013, 0.00610, 0.09155, -100.76300, 17.34200, -411015, 1827.00000, -197.00000, 945.00000, 1.57013, 0.00610, -0.03052, -100.76300, 17.34200, -11055, 1825.00000, -197.00000, 942.00000, 1.50909, -0.05493, -0.03052, -98.96900, 18.08950, -11095, 1824.00000, -197.00000, 943.00000, 1.50909, -0.05493, -0.03052, -101.80950, 18.38850, 11135, 1824.00000, -200.00000, 945.00000, 1.57013, 0.00610, -0.03052, -101.51050, 18.83700, -11175, 1825.00000, -199.00000, 945.00000, 1.50909, 0.00610, -0.03052, -100.76300, 17.64100, -11215, 1824.00000, -197.00000, 941.00000, 1.50909, 0.00610, 0.09155, -100.76300, 17.64100, -411263, 1818.00000, -199.00000, 942.00000, 1.44806, -0.05493, 0.03052, -100.76300, 17.64100, -11303, 1826.00000, -192.00000, 943.00000, 1.50909, -0.05493, 0.09155, -100.16500, 19.73400, -11343, 1824.00000, -193.00000, 944.00000, 1.38702, -0.17700, -0.03052, -101.66000, 17.94000, 11383, 1822.00000, -201.00000, 941.00000, 1.44806, -0.05493, 0.09155, -100.61349, 17.49150, -11423, 1824.00000, -196.00000, 942.00000, 1.44806, -0.11597, -0.03052, -101.06200, 18.38850, 11463, 1823.00000, -196.00000, 946.00000, 1.38702, 0.06714, 0.03052, -101.06200, 18.38850, -40.21550
10650, 1824.00000, -199.00000, 950.00000, 1.50909, 0.00610, -0.09155, -103.15500, 16.74400, -10690, 1827.00000, -195.00000, 949.00000, 1.57013, -0.11597, -0.09155, -101.95900, 17.49150, 10730, 1827.00000, -199.00000, 948.00000, 1.69220, -0.17700, -0.03052, -102.70650, 17.94000, 10770, 1824.00000, -203.00000, 944.00000, 1.57013, -0.11597, -0.09155, -102.70650, 17.94000, 10810, 1824.00000, -195.00000, 946.00000, 1.63116, -0.05493, -0.03052, -100.46400, 17.64100, 10850, 1825.00000, -197.00000, 947.00000, 1.50909, 0.00610, -0.03052, -101.51050, 16.59450, -10890, 1826.00000, -198.00000, 951.00000, 1.50909, -0.05493, -0.09155, -101.51050, 16.59450, 10930, 1825.00000, -199.00000, 946.00000, 1.57013, -0.05493, -0.03052, -101.51050, 16.59450, 10970, 1824.00000, -197.00000, 943.00000, 1.57013, 0.00610, 0.09155, -100.76300, 17.34200, -411015, 1827.00000, -197.00000, 945.00000, 1.57013, 0.00610, -0.03052, -100.76300, 17.34200, -11055, 1825.00000, -197.00000, 942.00000, 1.50909, -0.05493, -0.03052, -98.96900, 18.08950, -11095, 1824.00000, -197.00000, 943.00000, 1.50909, -0.05493, -0.03052, -101.80950, 18.38850, 11135, 1824.00000, -200.00000, 945.00000, 1.57013, 0.00610, -0.03052, -101.51050, 18.83700, -11175, 1825.00000, -199.00000, 945.00000, 1.50909, 0.00610, -0.03052, -100.76300, 17.64100, -11215, 1824.00000, -197.00000, 941.00000, 1.50909, 0.00610, 0.09155, -100.76300, 17.64100, -411263, 1818.00000, -199.00000, 942.00000, 1.44806, -0.05493, 0.03052, -100.76300, 17.64100, -11303, 1826.00000, -192.00000, 943.00000, 1.50909, -0.05493, 0.09155, -100.16500, 19.73400, -11343, 1824.00000, -193.00000, 944.00000, 1.38702, -0.17700, -0.03052, -101.66000, 17.94000, 11383, 1822.00000, -201.00000, 941.00000, 1.44806, -0.05493, 0.09155, -100.61349, 17.49150, -11423, 1824.00000, -196.00000, 942.00000, 1.44806, -0.11597, -0.03052, -101.06200, 18.38850, 11463, 1823.00000, -196.00000, 946.00000, 1.38702, 0.06714, 0.03052, -101.06200, 18.38850, -40.21550
10690, 1827.00000, -195.00000, 949.00000, 1.57013, -0.11597, -0.09155, -101.95900, 17.49150, 10730, 1827.00000, -199.00000, 948.00000, 1.69220, -0.17700, -0.03052, -102.70650, 17.94000, 10770, 1824.00000, -203.00000, 944.00000, 1.57013, -0.11597, -0.09155, -102.70650, 17.94000, 10810, 1824.00000, -195.00000, 946.00000, 1.63116, -0.05493, -0.03052, -100.46400, 17.64100, 10850, 1825.00000, -197.00000, 947.00000, 1.50909, 0.00610, -0.03052, -101.51050, 16.59450, -10890, 1826.00000, -198.00000, 951.00000, 1.50909, -0.05493, -0.09155, -101.51050, 16.59450, 10930, 1825.00000, -199.00000, 946.00000, 1.57013, -0.05493, -0.03052, -101.51050, 16.59450, 10970, 1824.00000, -197.00000, 943.00000, 1.57013, 0.00610, 0.09155, -100.76300, 17.34200, -411015, 1827.00000, -197.00000, 945.00000, 1.57013, 0.00610, -0.03052, -100.76300, 17.34200, -11055, 1825.00000, -197.00000, 942.00000, 1.50909, -0.05493, -0.03052, -98.96900, 18.08950, -11095, 1824.00000, -197.00000, 943.00000, 1.50909, -0.05493, -0.03052, -101.80950, 18.38850, 11135, 1824.00000, -200.00000, 945.00000, 1.57013, 0.00610, -0.03052, -101.51050, 18.83700, -11175, 1825.00000, -199.00000, 945.00000, 1.50909, 0.00610, -0.03052, -100.76300, 17.64100, -11215, 1824.00000, -197.00000, 941.00000, 1.50909, 0.00610, 0.09155, -100.76300, 17.64100, -411263, 1818.00000, -199.00000, 942.00000, 1.44806, -0.05493, 0.03052, -100.76300, 17.64100, -11303, 1826.00000, -192.00000, 943.00000, 1.50909, -0.05493, 0.09155, -100.16500, 19.73400, -11343, 1824.00000, -193.00000, 944.00000, 1.38702, -0.17700, -0.03052, -101.66000, 17.94000, 11383, 1822.00000, -201.00000, 941.00000, 1.44806, -0.05493, 0.09155, -100.61349, 17.49150, -11423, 1824.00000, -196.00000, 942.00000, 1.44806, -0.11597, -0.03052, -101.06200, 18.38850, 11463, 1823.00000, -196.00000, 946.00000, 1.38702, 0.06714, 0.03052, -101.06200, 18.38850, -40.21550
10730, 1827.00000, -199.00000, 948.00000, 1.69220, -0.17700, -0.03052, -102.70650, 17.94000, 10770, 1824.00000, -203.00000, 944.00000, 1.57013, -0.11597, -0.09155, -102.70650, 17.94000, 10810, 1824.00000, -195.00000, 946.00000, 1.63116, -0.05493, -0.03052, -100.46400, 17.64100, 10850, 1825.00000, -197.00000, 947.00000, 1.50909, 0.00610, -0.03052, -101.51050, 16.59450, -10890, 1826.00000, -198.00000, 951.00000, 1.50909, -0.05493, -0.09155, -101.51050, 16.59450, 10930, 1825.00000, -199.00000, 946.00000, 1.57013, -0.05493, -0.03052, -101.51050, 16.59450, 10970, 1824.00000, -197.00000, 943.00000, 1.57013, 0.00610, 0.09155, -100.76300, 17.34200, -411015, 1827.00000, -197.00000, 945.00000, 1.57013, 0.00610, -0.03052, -100.76300, 17.34200, -11055, 1825.00000, -197.00000, 942.00000, 1.50909, -0.05493, -0.03052, -98.96900, 18.08950, -11095, 1824.00000, -197.00000, 943.00000, 1.50909, -0.05493, -0.03052, -101.80950, 18.38850, 11135, 1824.00000, -200.00000, 945.00000, 1.57013, 0.00610, -0.03052, -101.51050, 18.83700, -11175, 1825.00000, -199.00000, 945.00000, 1.50909, 0.00610, -0.03052, -100.76300, 17.64100, -11215, 1824.00000, -197.00000, 941.00000, 1.50909, 0.00610, 0.09155, -100.76300, 17.64100, -411263, 1818.00000, -199.00000, 942.00000, 1.44806, -0.05493, 0.03052, -100.76300, 17.64100, -11303, 1826.00000, -192.00000, 943.00000, 1.50909, -0.05493, 0.09155, -100.16500, 19.73400, -11343, 1824.00000, -193.00000, 944.00000, 1.38702, -0.17700, -0.03052, -101.66000, 17.94000, 11383, 1822.00000, -201.00000, 941.00000, 1.44806, -0.05493, 0.09155, -100.61349, 17.49150, -11423, 1824.00000, -196.00000, 942.00000, 1.44806, -0.11597, -0.03052, -101.06200, 18.38850, 11463, 1823.00000, -196.00000, 946.00000, 1.38702, 0.06714, 0.03052, -101.06200, 18.38850, -40.21550
10770, 1824.00000, -203.00000, 944.00000, 1.57013, -0.11597, -0.09155, -102.70650, 17.94000, 10810, 1824.00000, -195.00000, 946.00000, 1.63116, -0.05493, -0.03052, -100.46400, 17.64100, 10850, 1825.00000, -197.00000, 947.00000, 1.50909, 0.00610, -0.03052, -101.51050, 16.59450, -10890, 1826.00000, -198.00000, 951.00000, 1.50909, -0.05493, -0.09155, -101.51050, 16.59450, 10930, 1825.00000, -199.00000, 946.00000, 1.57013, -0.05493, -0.03052, -101.51050, 16.59450, 10970, 1824.00000, -197.00000, 943.00000, 1.57013, 0.00610, 0.09155, -100.76300, 17.34200, -411015, 1827.00000, -197.00000, 945.00000, 1.57013, 0.00610, -0.03052, -100.76300, 17.34200, -11055, 1825.00000, -197.00000, 942.00000, 1.50909, -0.05493, -0.03052, -98.96900, 18.08950, -11095, 1824.00000, -197.00000, 943.00000, 1.50909, -0.05493, -0.03052, -101.80950, 18.38850, 11135, 1824.00000, -200.00000, 945.00000, 1.57013, 0.00610, -0.03052, -101.51050, 18.83700, -11175, 1825.00000, -199.00000, 945.00000, 1.50909, 0.00610, -0.03052, -100.76300, 17.64100, -11215, 1824.00000, -197.00000, 941.00000, 1.50909, 0.00610, 0.09155, -100.76300, 17.64100, -411263, 1818.00000, -199.00000, 942.00000, 1.44806, -0.05493, 0.03052, -100.76300, 17.64100, -11303, 1826.00000, -192.00000, 943.00000, 1.50909, -0.05493, 0.09155, -100.16500, 19.73400, -11343, 1824.00000, -193.00000, 944.00000, 1.38702, -0.17700, -0.03052, -101.66000, 17.94000, 11383, 1822.00000, -201.00000, 941.00000, 1.44806, -0.05493, 0.09155, -100.61349, 17.49150, -11423, 1824.00000, -196.00000, 942.00000, 1.44806, -0.11597, -0.03052, -101.06200, 18.38850, 11463, 1823.00000, -196.00000, 946.00000, 1.38702, 0.06714, 0.03052, -101.06200, 18.38850, -40.21550
10810, 1824.00000, -195.00000, 946.00000, 1.63116, -0.05493, -0.03052, -100.46400, 17.64100, 10850, 1825.00000, -197.00000, 947.00000, 1.50909, 0.00610, -0.03052, -101.51050, 16.59450, -10890, 1826.00000, -198.00000, 951.00000, 1.50909, -0.05493, -0.09155, -101.51050, 16.59450, 10930, 1825.00000, -199.00000, 946.00000, 1.57013, -0.05493, -0.03052, -101.51050, 16.59450, 10970, 1824.00000, -197.00000, 943.00000, 1.57013, 0.00610, 0.09155, -100.76300, 17.34200, -411015, 1827.00000, -197.00000, 945.00000, 1.57013, 0.00610, -0.03052, -100.76300, 17.34200, -11055, 1825.00000, -197.00000, 942.00000, 1.50909, -0.05493, -0.03052, -98.96900, 18.08950, -11095, 1824.00000, -197.00000, 943.00000, 1.50909, -0.05493, -0.03052, -101.80950, 18.38850, 11135, 1824.00000, -200.00000, 945.00000, 1.57013, 0.00610, -0.03052, -101.51050, 18.83700, -11175, 1825.00000, -199.00000, 945.00000, 1.50909, 0.00610, -0.03052, -100.76300, 17.64100, -11215, 1824.00000, -197.00000, 941.00000, 1.50909, 0.00610, 0.09155, -100.76300, 17.64100, -411263, 1818.00000, -199.00000, 942.00000, 1.44806, -0.05493, 0.03052, -100.76300, 17.64100, -11303, 1826.00000, -192.00000, 943.00000, 1.50909, -0.05493, 0.09155, -100.16500, 19.73400, -11343, 1824.00000, -193.00000, 944.00000, 1.38702, -0.17700, -0.03052, -101.66000, 17.94000, 11383, 1822.00000, -201.00000, 941.00000, 1.44806, -0.05493, 0.09155, -100.61349, 17.49150, -11423, 1824.00000, -196.00000, 942.00000, 1.44806, -0.11597, -0.03052, -101.06200, 18.38850, 11463, 1823.00000, -196.00000, 946.00000, 1.38702, 0.06714, 0.03052, -101.06200, 18.38850, -40.21550
10850, 1825.00000, -197.00000, 947.00000, 1.50909, 0.00610, -0.03052, -101.51050, 16.59450, -10890, 1826.00000, -198.00000, 951.00000, 1.50909, -0.05493, -0.09155, -101.51050, 16.59450, 10930, 1825.00000, -199.00000, 946.00000, 1.57013, -0.05493, -0.03052, -101.51050, 16.59450, 10970, 1824.00000, -197.00000, 943.00000, 1.57013, 0.00610, 0.09155, -100.76300, 17.34200, -411015, 1827.00000, -197.00000, 945.00000, 1.57013, 0.00610, -0.03052, -100.76300, 17.34200, -11055, 1825.00000, -197.00000, 942.00000, 1.50909, -0.05493, -0.03052, -98.96900, 18.08950, -11095, 1824.00000, -197.00000, 943.00000, 1.50909, -0.05493, -0.03052, -101.80950, 18.38850, 11135, 1824.00000, -200.00000, 945.00000, 1.57013, 0.00610, -0.03052, -101.51050, 18.83700, -11175, 1825.00000, -199.00000, 945.00000, 1.50909, 0.00610, -0.03052, -100.76300, 17.64100, -11215, 1824.00000, -197.00000, 941.00000, 1.50909, 0.00610, 0.09155, -100.76300, 17.64100, -411263, 1818.00000, -199.00000, 942.00000, 1.44806, -0.05493, 0.03052, -100.76300, 17.64100, -11303, 1826.00000, -192.00000, 943.00000, 1.50909, -0.05493, 0.09155, -100.16500, 19.73400, -11343, 1824.00000, -193.00000, 944.00000, 1.38702, -0.17700, -0.03052, -101.66000, 17.94000, 11383, 1822.00000, -201.00000, 941.00000, 1.44806, -0.05493, 0.09155, -100.61349, 17.49150, -11423, 1824.00000, -196.00000, 942.00000, 1.44806, -0.11597, -0.03052, -101.06200, 18.38850, 11463, 1823.00000, -196.00000, 946.00000, 1.38702, 0.06714, 0.03052, -101.06200, 18.38850, -40.21550
10890, 1826.00000, -198.00000, 951.00000, 1.50909, -0.05493, -0.09155, -101.51050, 16.59450, 10930, 1825.00000, -199.00000, 946.00000, 1.57013, -0.05493, -0.03052, -101.51050, 16.59450, 10970, 1824.00000, -197.00000, 943.00000, 1.57013, 0.00610, 0.09155, -100.76300, 17.34200, -411015, 1827.00000, -197.00000, 945.00000, 1.57013, 0.00610, -0.03052, -100.76300, 17.34200, -11055, 1825.00000, -197.00000, 942.00000, 1.50909, -0.05493, -0.03052, -98.96900, 18.08950, -11095, 1824.00000, -197.00000, 943.00000, 1.50909, -0.05493, -0.03052, -101.80950, 18.38850, 11135, 1824.00000, -200.00000, 945.00000, 1.57013, 0.00610, -0.03052, -101.51050, 18.83700, -11175, 1825.00000, -199.00000, 945.00000, 1.50909, 0.00610, -0.03052, -100.76300, 17.64100, -11215, 1824.00000, -197.00000, 941.00000, 1.50909, 0.00610, 0.09155, -100.76300, 17.64100, -411263, 1818.00000, -199.00000, 942.00000, 1.44806, -0.05493, 0.03052, -100.76300, 17.64100, -11303, 1826.00000, -192.00000, 943.00000, 1.50909, -0.05493, 0.09155, -100.16500, 19.73400, -11343, 1824.00000, -193.00000, 944.00000, 1.38702, -0.17700, -0.03052, -101.66000, 17.94000, 11383, 1822.00000, -201.00000, 941.00000, 1.44806, -0.05493, 0.09155, -100.61349, 17.49150, -11423, 1824.00000, -196.00000, 942.00000, 1.44806, -0.11597, -0.03052, -101.06200, 18.38850, 11463, 1823.00000, -196.00000, 946.00000, 1.38702, 0.06714, 0.03052, -101.06200, 18.38850, -40.21550
10930, 1825.00000, -199.00000, 946.00000, 1.57013, -0.05493, -0.03052, -101.51050, 16.59450, 10970, 1824.00000, -197.00000, 943.00000, 1.57013, 0.00610, 0.09155, -100.76300, 17.34200, -411015, 1827.00000, -197.00000, 945.00000, 1.57013, 0.00610, -0.03052, -100.76300, 17.34200, -11055, 1825.00000, -197.00000, 942.00000, 1.50909, -0.05493, -0.03052, -98.96900, 18.08950, -11095, 1824.00000, -197.00000, 943.00000, 1.50909, -0.05493, -0.03052, -101.80950, 18.38850, 11135, 1824.00000, -200.00000, 945.00000, 1.57013, 0.00610, -0.03052, -101.51050, 18.83700, -11175, 1825.00000, -199.00000, 945.00000, 1.50909, 0.00610, -0.03052, -100.76300, 17.64100, -11215, 1824.00000, -197.00000, 941.00000, 1.50909, 0.00610, 0.09155, -100.76300, 17.64100, -411263, 1818.00000, -199.00000, 942.00000, 1.44806, -0.05493, 0.03052, -100.76300, 17.64100, -11303, 1826.00000, -192.00000, 943.00000, 1.50909, -0.05493, 0.09155, -100.16500, 19.73400, -11343, 1824.00000, -193.00000, 944.00000, 1.38702, -0.17700, -0.03052, -101.66000, 17.94000, 11383, 1822.00000, -201.00000, 941.00000, 1.44806, -0.05493, 0.09155, -100.61349, 17.49150, -11423, 1824.00000, -196.00000, 942.00000, 1.44806, -0.11597, -0.03052, -101.06200, 18.38850, 11463, 1823.00000, -196.00000, 946.00000, 1.38702, 0.06714, 0.03052, -101.06200, 18.38850, -40.21550
10970, 1824.00000, -197.00000, 943.00000, 1.57013, 0.00610, 0.09155, -100.76300, 17.34200, -411015, 1827.00000, -197.00000, 945.00000, 1.57013, 0.00610, -0.03052, -100.76300, 17.34200, -11055, 1825.00000, -197.00000, 942.00000, 1.50909, -0.05493, -0.03052, -98.96900, 18.08950, -11095, 1824.00000, -197.00000, 943.00000, 1.50909, -0.05493, -0.03052, -101.80950, 18.38850, 11135, 1824.00000, -200.00000, 945.00000, 1.57013, 0.00610, -0.03052, -101.51050, 18.83700, -11175, 1825.00000, -199.00000, 945.00000, 1.50909, 0.00610, -0.03052, -100.76300, 17.64100, -11215, 1824.00000, -197.00000, 941.00000, 1.50909, 0.00610, 0.09155, -100.76300, 17.64100, -411263, 1818.00000, -199.00000, 942.00000, 1.44806, -0.05493, 0.03052, -100.76300, 17.64100, -11303, 1826.00000, -192.00000, 943.00000, 1.50909, -0.05493, 0.09155, -100.16500, 19.73400, -11343, 1824.00000, -193.00000, 944.00000, 1.38702, -0.17700, -0.03052, -101.66000, 17.94000, 11383, 1822.00000, -201.00000, 941.00000, 1.44806, -0.05493, 0.09155, -100.61349, 17.49150, -11423, 1824.00000, -196.00000, 942.00000, 1.44806, -0.11597, -0.03052, -101.06200, 18.38850, 11463, 1823.00000, -196.00000, 946.00000, 1.38702, 0.06714, 0.03052, -101.06200, 18.38850, -40.21550
11015, 1827.00000, -197.00000, 945.00000, 1.57013, 0.00610, -0.03052, -100.76300, 17.34200, -11055, 1825.00000, -197.00000, 942.00000, 1.50909, -0.05493, -0.03052, -98.96900, 18.08950, -11095, 1824.00000, -197.00000, 943.00000, 1.50909, -0.05493, -0.03052, -101.80950, 18.38850, 11135, 1824.00000, -200.00000, 945.00000, 1.57013, 0.00610, -0.03052, -101.51050, 18.83700, -11175, 1825.00000, -199.00000, 945.00000, 1.50909, 0.00610, -0.03052, -100.76300, 17.64100, -11215, 1824.00000, -197.00000, 941.00000, 1.50909, 0.00610, 0.09155, -100.76300, 17.64100, -411263, 1818.00000, -199.00000, 942.00000, 1.44806, -0.05493, 0.03052, -100.76300, 17.64100, -11303, 1826.00000, -192.00000, 943.00000, 1.50909, -0.05493, 0.09155, -100.16500, 19.73400, -11343, 1824.00000, -193.00000, 944.00000, 1.38702, -0.17700, -0.03052, -101.66000, 17.94000, 11383, 1822.00000, -201.00000, 941.00000, 1.44806, -0.05493, 0.09155, -100.61349, 17.49150, -11423, 1824.00000, -196.00000, 942.00000, 1.44806, -0.11597, -0.03052, -101.06200, 18.38850, 11463, 1823.00000, -196.00000, 946.00000, 1.38702, 0.06714, 0.03052, -101.06200, 18.38850, -40.21550
11055, 1825.00000, -197.00000, 942.00000, 1.50909, -0.05493, -0.03052, -98.96900, 18.08950, -11095, 1824.00000, -197.00000, 943.00000, 1.50909, -0.05493, -0.03052, -101.80950, 18.38850, 11135, 1824.00000, -200.00000, 945.00000, 1.57013, 0.00610, -0.03052, -101.51050, 18.83700, -11175, 1825.00000, -199.00000, 945.00000, 1.50909, 0.00610, -0.03052, -100.76300, 17.64100, -11215, 1824.00000, -197.00000, 941.00000, 1.50909, 0.00610, 0.09155, -100.76300, 17.64100, -411263, 1818.00000, -199.00000, 942.00000, 1.44806, -0.05493, 0.03052, -100.76300, 17.64100, -11303, 1826.00000, -192.00000, 943.00000, 1.50909, -0.05493, 0.09155, -100.16500, 19.73400, -11343, 1824.00000, -193.00000, 944.00000, 1.38702, -0.17700, -0.03052, -101.66000, 17.94000, 11383, 1822.00000, -201.00000, 941.00000, 1.44806, -0.05493, 0.09155, -100.61349, 17.49150, -11423, 1824.00000, -196.00000, 942.00000, 1.44806, -0.11597, -0.03052, -101.06200, 18.38850, 11463, 1823.00000, -196.00000, 946.00000, 1.38702, 0.06714, 0.03052, -101.06200, 18.38850, -40.21550
11095, 1824.00000, -197.00000, 943.00000, 1.50909, -0.05493, -0.03052, -101.80950, 18.38850, 11135, 1824.00000, -200.00000, 945.00000, 1.57013, 0.00610, -0.03052, -101.51050, 18.83700, -11175, 1825.00000, -199.00000, 945.00000, 1.50909, 0.00610, -0.03052, -100.76300, 17.64100, -11215, 1824.00000, -197.00000, 941.00000, 1.50909, 0.00610, 0.09155, -100.76300, 17.64100, -411263, 1818.00000, -199.00000, 942.00000, 1.44806, -0.05493, 0.03052, -100.76300, 17.64100, -11303, 1826.00000, -192.00000, 943.00000, 1.50909, -0.05493, 0.09155, -100.16500, 19.73400, -11343, 1824.00000, -193.00000, 944.00000, 1.38702, -0.17700, -0.03052, -101.66000, 17.94000, 11383, 1822.00000, -201.00000, 941.00000, 1.44806, -0.05493, 0.09155, -100.61349, 17.49150, -11423, 1824.00000, -196.00000, 942.00000, 1.44806, -0.11597, -0.03052, -101.06200, 18.38850, 11463, 1823.00000, -196.00000, 946.00000, 1.38702, 0.06714, 0.03052, -101.06200, 18.38850, -40.21550
11135, 1824.00000, -200.00000, 945.00000, 1.57013, 0.00610, -0.03052, -101.51050, 18.83700, -11175, 1825.00000, -199.00000, 945.00000, 1.50909, 0.00610, -0.03052, -100.76300, 17.64100, -11215, 1824.00000, -197.00000, 941.00000, 1.50909, 0.00610, 0.09155, -100.76300, 17.64100, -411263, 1818.00000, -199.00000, 942.00000, 1.44806, -0.05493, 0.03052, -100.76300, 17.64100, -11303, 1826.00000, -192.00000, 943.00000, 1.50909, -0.05493, 0.09155, -100.16500, 19.73400, -11343, 1824.00000, -193.00000, 944.00000, 1.38702, -0.17700, -0.03052, -101.66000, 17.94000, 11383, 1822.00000, -201.00000, 941.00000, 1.44806, -0.05493, 0.09155, -100.61349, 17.49150, -11423, 1824.00000, -196.00000, 942.00000, 1.44806, -0.11597, -0.03052, -101.06200, 18.38850, 11463, 1823.00000, -196.00000, 946.00000, 1.38702, 0.06714, 0.03052, -101.06200, 18.38850, -40.21550
11175, 1825.00000, -199.00000, 945.00000, 1.50909, 0.00610, -0.03052, -100.76300, 17.64100, -11215, 1824.00000, -197.00000, 941.00000, 1.50909, 0.00610, 0.09155, -100.76300, 17.64100, -411263, 1818.00000, -199.00000, 942.00000, 1.44806, -0.05493, 0.03052, -100.76300, 17.64100, -11303, 1826.00000, -192.00000, 943.00000, 1.50909, -0.05493, 0.09155, -100.16500, 19.73400, -11343, 1824.00000, -193.00000, 944.00000, 1.38702, -0.17700, -0.03052, -101.66000, 17.94000, 11383, 1822.00000, -201.00000, 941.00000, 1.44806, -0.05493, 0.09155, -100.61349, 17.49150, -11423, 1824.00000, -196.00000, 942.00000, 1.44806, -0.11597, -0.03052, -101.06200, 18.38850, 11463, 1823.00000, -196.00000, 946.00000, 1.38702, 0.06714, 0.03052, -101.06200, 18.38850, -40.21550
11215, 1824.00000, -197.00000, 941.00000, 1.50909, 0.00610, 0.09155, -100.76300, 17.64100, -411263, 1818.00000, -199.00000, 942.00000, 1.44806, -0.05493, 0.03052, -100.76300, 17.64100, -11303, 1826.00000, -192.00000, 943.00000, 1.50909, -0.05493, 0.09155, -100.16500, 19.73400, -11343, 1824.00000, -193.00000, 944.00000, 1.38702, -0.17700, -0.03052, -101.66000, 17.94000, 11383, 1822.00000, -201.00000, 941.00000, 1.44806, -0.05493, 0.09155, -100.61349, 17.49150, -11423, 1824.00000, -196.00000, 942.00000, 1.44806, -0.11597, -0.03052, -101.06200, 18.38850, 11463, 1823.00000, -196.00000, 946.00000, 1.38702, 0.06714, 0.03052, -101.06200, 18.38850, -40.21550
11263, 1818.00000, -199.00000, 942.00000, 1.44806, -0.05493, 0.03052, -100.76300, 17.64100, -11303, 1826.00000, -192.00000, 943.00000, 1.50909, -0.05493, 0.09155, -100.16500, 19.73400, -11343, 1824.00000, -193.00000, 944.00000, 1.38702, -0.17700, -0.03052, -101.66000, 17.94000, 11383, 1822.00000, -201.00000, 941.00000, 1.44806, -0.05493, 0.09155, -100.61349, 17.49150, -11423, 1824.00000, -196.00000, 942.00000, 1.44806, -0.11597, -0.03052, -101.06200, 18.38850, 11463, 1823.00000, -196.00000, 946.00000, 1.38702, 0.06714, 0.03052, -101.06200, 18.38850, -40.21550
11303, 1826.00000, -192.00000, 943.00000, 1.50909, -0.05493, 0.09155, -100.16500, 19.73400, -11343, 1824.00000, -193.00000, 944.00000, 1.38702, -0.17700, -0.03052, -101.66000, 17.94000, 11383, 1822.00000, -201.00000, 941.00000, 1.44806, -0.05493, 0.09155, -100.61349, 17.49150, -11423, 1824.00000, -196.00000, 942.00000, 1.44806, -0.11597, -0.03052, -101.06200, 18.38850, 11463, 1823.00000, -196.00000, 946.00000, 1.38702, 0.06714, 0.03052, -101.06200, 18.38850, -40.21550
11343, 1824.00000, -193.00000, 944.00000, 1.38702, -0.17700, -0.03052, -101.66000, 17.94000, 11383, 1822.00000, -201.00000, 941.00000, 1.44806, -0.05493, 0.09155, -100.61349, 17.49150, -11423, 1824.00000, -196.00000, 942.00000, 1.44806, -0.11597, -0.03052, -101.06200, 18.38850, 11463, 1823.00000, -196.00000, 946.00000, 1.38702, 0.06714, 0.03052, -101.06200, 18.38850, -40.21550
11383, 1822.00000, -201.00000, 941.00000, 1.44806, -0.05493, 0.09155, -100.61349, 17.49150, -11423, 1824.00000, -196.00000, 942.00000, 1.44806, -0.11597, -0.03052, -101.06200, 18.38850, 11463, 1823.00000, -196.00000, 946.00000, 1.38702, 0.06714, 0.03052, -101.06200, 18.38850, -40.21550
11423, 1824.00000, -196.00000, 942.00000, 1.44806, -0.11597, -0.03052, -101.06200, 18.38850, 11463, 1823.00000, -196.00000, 946.00000, 1.38702, 0.06714, 0.03052, -101.06200, 18.38850, -40.21550
11463, 1823.00000, -196.00000, 946.00000, 1.38702, 0.06714, 0.03052, -101.06200, 18.38850, -40.21550
11574, 1826.00000, -195.00000, 940.00000, 1.57013, -0.11597, -0.09155, -101.06200, 18.83700, 11614, 1828.00000, -196.00000, 940.00000, 1.57013, -0.11597, -0.03052, -102.40750, 16.44500, 11654, 1826.00000, -195.00000, 942.00000, 1.50909, 0.06714, 0.03052, -102.40750, 16.44500, -311694, 1827.00000, -198.00000, 940.00000, 1.44806, 0.06714, -0.03052, -101.95900, 17.49150, -11734, 1823.00000, -196.00000, 946.00000, 1.50909, 0.00610, 0.03052, -100.61349, 17.19250, -411774, 1829.00000, -194.00000, 944.00000, 1.50909, 0.00610, -0.03052, -101.95900, 15.99650, -11814, 1827.00000, -198.00000, 944.00000, 1.50909, 0.00610, -0.03052, -101.95900, 15.99650, -11854, 1827.00000, -198.00000, 942.00000, 1.50909, -0.05493, -0.03052, -101.95900, 15.99650, 11894, 1824.00000, -195.00000, 942.00000, 1.44806, -0.05493, -0.03052, -101.95900, 15.99650, 11934, 1823.00000, -201.00000, 941.00000, 1.50909, -0.17700, 0.03052, -100.46400, 16.14600, -11974, 1785.00000, -183.00000, 976.00000, 0.47150, -7.07397, -2.77710, -102.55700, 18.83700, 12014, 1841.00000, -184.00000, 908.00000, 5.90363, -13.72681, -8.20923, -102.25800, 18.08950,12054, 1934.00000, -37.00000, 816.00000, -18.26630, 30.34058, 19.25659, -102.25800, 18.08950,12098, 1626.00000, -285.00000, 1113.00000, -2.94647, 21.91772, 12.05444, -101.36100, 17.4915012138, 1804.00000, -280.00000, 944.00000, -2.64130, -57.42798, -40.61890, -100.46400, 16.893512178, 1933.00000, -102.00000, 786.00000, -1.60370, -21.66138, -16.08276, -100.46400, 16.893512218, 1844.00000, -180.00000, 896.00000, -0.01678, 1.65405, 0.39673, -100.46400, 17.34200, -12258, 1810.00000, -196.00000, 937.00000, -5.32684, -13.90991, -11.01685, -101.06200, 18.089512298, 1889.00000, -68.00000, 812.00000, -20.95184, -29.29077, -12.17651, -101.06200, 18.089512347, 1906.00000, -192.00000, 758.00000, -10.20966, -14.88647, 5.15747, -99.71650, 18.38850,12387, 1903.00000, -174.00000, 791.00000, -7.58514, 3.72925, -8.81958, -98.22150, 21.37850, -12427, 1893.00000, -221.00000, 795.00000, 9.38263, 4.40063, -6.37817, -98.37099, 21.22900, -412467, 1902.00000, -245.00000, 714.00000, 34.34601, 24.48120, -7.35474, -98.37099, 21.22900, 12507, 1844.00000, -88.00000, 880.00000, 24.51935, 2.87476, 0.45776, -99.26800, 18.83700, -4312547, 1892.00000, -37.00000, 839.00000, 8.16193, 0.92163, 3.63159, -99.26800, 18.83700, -43.05600
11614, 1828.00000, -196.00000, 940.00000, 1.57013, -0.11597, -0.03052, -102.40750, 16.44500, 11654, 1826.00000, -195.00000, 942.00000, 1.50909, 0.06714, 0.03052, -102.40750, 16.44500, -311694, 1827.00000, -198.00000, 940.00000, 1.44806, 0.06714, -0.03052, -101.95900, 17.49150, -11734, 1823.00000, -196.00000, 946.00000, 1.50909, 0.00610, 0.03052, -100.61349, 17.19250, -411774, 1829.00000, -194.00000, 944.00000, 1.50909, 0.00610, -0.03052, -101.95900, 15.99650, -11814, 1827.00000, -198.00000, 944.00000, 1.50909, 0.00610, -0.03052, -101.95900, 15.99650, -11854, 1827.00000, -198.00000, 942.00000, 1.50909, -0.05493, -0.03052, -101.95900, 15.99650, 11894, 1824.00000, -195.00000, 942.00000, 1.44806, -0.05493, -0.03052, -101.95900, 15.99650, 11934, 1823.00000, -201.00000, 941.00000, 1.50909, -0.17700, 0.03052, -100.46400, 16.14600, -11974, 1785.00000, -183.00000, 976.00000, 0.47150, -7.07397, -2.77710, -102.55700, 18.83700, 12014, 1841.00000, -184.00000, 908.00000, 5.90363, -13.72681, -8.20923, -102.25800, 18.08950,12054, 1934.00000, -37.00000, 816.00000, -18.26630, 30.34058, 19.25659, -102.25800, 18.08950,12098, 1626.00000, -285.00000, 1113.00000, -2.94647, 21.91772, 12.05444, -101.36100, 17.4915012138, 1804.00000, -280.00000, 944.00000, -2.64130, -57.42798, -40.61890, -100.46400, 16.893512178, 1933.00000, -102.00000, 786.00000, -1.60370, -21.66138, -16.08276, -100.46400, 16.893512218, 1844.00000, -180.00000, 896.00000, -0.01678, 1.65405, 0.39673, -100.46400, 17.34200, -12258, 1810.00000, -196.00000, 937.00000, -5.32684, -13.90991, -11.01685, -101.06200, 18.089512298, 1889.00000, -68.00000, 812.00000, -20.95184, -29.29077, -12.17651, -101.06200, 18.089512347, 1906.00000, -192.00000, 758.00000, -10.20966, -14.88647, 5.15747, -99.71650, 18.38850,12387, 1903.00000, -174.00000, 791.00000, -7.58514, 3.72925, -8.81958, -98.22150, 21.37850, -12427, 1893.00000, -221.00000, 795.00000, 9.38263, 4.40063, -6.37817, -98.37099, 21.22900, -412467, 1902.00000, -245.00000, 714.00000, 34.34601, 24.48120, -7.35474, -98.37099, 21.22900, 12507, 1844.00000, -88.00000, 880.00000, 24.51935, 2.87476, 0.45776, -99.26800, 18.83700, -4312547, 1892.00000, -37.00000, 839.00000, 8.16193, 0.92163, 3.63159, -99.26800, 18.83700, -43.05600
11654, 1826.00000, -195.00000, 942.00000, 1.50909, 0.06714, 0.03052, -102.40750, 16.44500, -311694, 1827.00000, -198.00000, 940.00000, 1.44806, 0.06714, -0.03052, -101.95900, 17.49150, -11734, 1823.00000, -196.00000, 946.00000, 1.50909, 0.00610, 0.03052, -100.61349, 17.19250, -411774, 1829.00000, -194.00000, 944.00000, 1.50909, 0.00610, -0.03052, -101.95900, 15.99650, -11814, 1827.00000, -198.00000, 944.00000, 1.50909, 0.00610, -0.03052, -101.95900, 15.99650, -11854, 1827.00000, -198.00000, 942.00000, 1.50909, -0.05493, -0.03052, -101.95900, 15.99650, 11894, 1824.00000, -195.00000, 942.00000, 1.44806, -0.05493, -0.03052, -101.95900, 15.99650, 11934, 1823.00000, -201.00000, 941.00000, 1.50909, -0.17700, 0.03052, -100.46400, 16.14600, -11974, 1785.00000, -183.00000, 976.00000, 0.47150, -7.07397, -2.77710, -102.55700, 18.83700, 12014, 1841.00000, -184.00000, 908.00000, 5.90363, -13.72681, -8.20923, -102.25800, 18.08950,12054, 1934.00000, -37.00000, 816.00000, -18.26630, 30.34058, 19.25659, -102.25800, 18.08950,12098, 1626.00000, -285.00000, 1113.00000, -2.94647, 21.91772, 12.05444, -101.36100, 17.4915012138, 1804.00000, -280.00000, 944.00000, -2.64130, -57.42798, -40.61890, -100.46400, 16.893512178, 1933.00000, -102.00000, 786.00000, -1.60370, -21.66138, -16.08276, -100.46400, 16.893512218, 1844.00000, -180.00000, 896.00000, -0.01678, 1.65405, 0.39673, -100.46400, 17.34200, -12258, 1810.00000, -196.00000, 937.00000, -5.32684, -13.90991, -11.01685, -101.06200, 18.089512298, 1889.00000, -68.00000, 812.00000, -20.95184, -29.29077, -12.17651, -101.06200, 18.089512347, 1906.00000, -192.00000, 758.00000, -10.20966, -14.88647, 5.15747, -99.71650, 18.38850,12387, 1903.00000, -174.00000, 791.00000, -7.58514, 3.72925, -8.81958, -98.22150, 21.37850, -12427, 1893.00000, -221.00000, 795.00000, 9.38263, 4.40063, -6.37817, -98.37099, 21.22900, -412467, 1902.00000, -245.00000, 714.00000, 34.34601, 24.48120, -7.35474, -98.37099, 21.22900, 12507, 1844.00000, -88.00000, 880.00000, 24.51935, 2.87476, 0.45776, -99.26800, 18.83700, -4312547, 1892.00000, -37.00000, 839.00000, 8.16193, 0.92163, 3.63159, -99.26800, 18.83700, -43.05600
11694, 1827.00000, -198.00000, 940.00000, 1.44806, 0.06714, -0.03052, -101.95900, 17.49150, -11734, 1823.00000, -196.00000, 946.00000, 1.50909, 0.00610, 0.03052, -100.61349, 17.19250, -411774, 1829.00000, -194.00000, 944.00000, 1.50909, 0.00610, -0.03052, -101.95900, 15.99650, -11814, 1827.00000, -198.00000, 944.00000, 1.50909, 0.00610, -0.03052, -101.95900, 15.99650, -11854, 1827.00000, -198.00000, 942.00000, 1.50909, -0.05493, -0.03052, -101.95900, 15.99650, 11894, 1824.00000, -195.00000, 942.00000, 1.44806, -0.05493, -0.03052, -101.95900, 15.99650, 11934, 1823.00000, -201.00000, 941.00000, 1.50909, -0.17700, 0.03052, -100.46400, 16.14600, -11974, 1785.00000, -183.00000, 976.00000, 0.47150, -7.07397, -2.77710, -102.55700, 18.83700, 12014, 1841.00000, -184.00000, 908.00000, 5.90363, -13.72681, -8.20923, -102.25800, 18.08950,12054, 1934.00000, -37.00000, 816.00000, -18.26630, 30.34058, 19.25659, -102.25800, 18.08950,12098, 1626.00000, -285.00000, 1113.00000, -2.94647, 21.91772, 12.05444, -101.36100, 17.4915012138, 1804.00000, -280.00000, 944.00000, -2.64130, -57.42798, -40.61890, -100.46400, 16.893512178, 1933.00000, -102.00000, 786.00000, -1.60370, -21.66138, -16.08276, -100.46400, 16.893512218, 1844.00000, -180.00000, 896.00000, -0.01678, 1.65405, 0.39673, -100.46400, 17.34200, -12258, 1810.00000, -196.00000, 937.00000, -5.32684, -13.90991, -11.01685, -101.06200, 18.089512298, 1889.00000, -68.00000, 812.00000, -20.95184, -29.29077, -12.17651, -101.06200, 18.089512347, 1906.00000, -192.00000, 758.00000, -10.20966, -14.88647, 5.15747, -99.71650, 18.38850,12387, 1903.00000, -174.00000, 791.00000, -7.58514, 3.72925, -8.81958, -98.22150, 21.37850, -12427, 1893.00000, -221.00000, 795.00000, 9.38263, 4.40063, -6.37817, -98.37099, 21.22900, -412467, 1902.00000, -245.00000, 714.00000, 34.34601, 24.48120, -7.35474, -98.37099, 21.22900, 12507, 1844.00000, -88.00000, 880.00000, 24.51935, 2.87476, 0.45776, -99.26800, 18.83700, -4312547, 1892.00000, -37.00000, 839.00000, 8.16193, 0.92163, 3.63159, -99.26800, 18.83700, -43.05600
11734, 1823.00000, -196.00000, 946.00000, 1.50909, 0.00610, 0.03052, -100.61349, 17.19250, -411774, 1829.00000, -194.00000, 944.00000, 1.50909, 0.00610, -0.03052, -101.95900, 15.99650, -11814, 1827.00000, -198.00000, 944.00000, 1.50909, 0.00610, -0.03052, -101.95900, 15.99650, -11854, 1827.00000, -198.00000, 942.00000, 1.50909, -0.05493, -0.03052, -101.95900, 15.99650, 11894, 1824.00000, -195.00000, 942.00000, 1.44806, -0.05493, -0.03052, -101.95900, 15.99650, 11934, 1823.00000, -201.00000, 941.00000, 1.50909, -0.17700, 0.03052, -100.46400, 16.14600, -11974, 1785.00000, -183.00000, 976.00000, 0.47150, -7.07397, -2.77710, -102.55700, 18.83700, 12014, 1841.00000, -184.00000, 908.00000, 5.90363, -13.72681, -8.20923, -102.25800, 18.08950,12054, 1934.00000, -37.00000, 816.00000, -18.26630, 30.34058, 19.25659, -102.25800, 18.08950,12098, 1626.00000, -285.00000, 1113.00000, -2.94647, 21.91772, 12.05444, -101.36100, 17.4915012138, 1804.00000, -280.00000, 944.00000, -2.64130, -57.42798, -40.61890, -100.46400, 16.893512178, 1933.00000, -102.00000, 786.00000, -1.60370, -21.66138, -16.08276, -100.46400, 16.893512218, 1844.00000, -180.00000, 896.00000, -0.01678, 1.65405, 0.39673, -100.46400, 17.34200, -12258, 1810.00000, -196.00000, 937.00000, -5.32684, -13.90991, -11.01685, -101.06200, 18.089512298, 1889.00000, -68.00000, 812.00000, -20.95184, -29.29077, -12.17651, -101.06200, 18.089512347, 1906.00000, -192.00000, 758.00000, -10.20966, -14.88647, 5.15747, -99.71650, 18.38850,12387, 1903.00000, -174.00000, 791.00000, -7.58514, 3.72925, -8.81958, -98.22150, 21.37850, -12427, 1893.00000, -221.00000, 795.00000, 9.38263, 4.40063, -6.37817, -98.37099, 21.22900, -412467, 1902.00000, -245.00000, 714.00000, 34.34601, 24.48120, -7.35474, -98.37099, 21.22900, 12507, 1844.00000, -88.00000, 880.00000, 24.51935, 2.87476, 0.45776, -99.26800, 18.83700, -4312547, 1892.00000, -37.00000, 839.00000, 8.16193, 0.92163, 3.63159, -99.26800, 18.83700, -43.05600
11774, 1829.00000, -194.00000, 944.00000, 1.50909, 0.00610, -0.03052, -101.95900, 15.99650, -11814, 1827.00000, -198.00000, 944.00000, 1.50909, 0.00610, -0.03052, -101.95900, 15.99650, -11854, 1827.00000, -198.00000, 942.00000, 1.50909, -0.05493, -0.03052, -101.95900, 15.99650, 11894, 1824.00000, -195.00000, 942.00000, 1.44806, -0.05493, -0.03052, -101.95900, 15.99650, 11934, 1823.00000, -201.00000, 941.00000, 1.50909, -0.17700, 0.03052, -100.46400, 16.14600, -11974, 1785.00000, -183.00000, 976.00000, 0.47150, -7.07397, -2.77710, -102.55700, 18.83700, 12014, 1841.00000, -184.00000, 908.00000, 5.90363, -13.72681, -8.20923, -102.25800, 18.08950,12054, 1934.00000, -37.00000, 816.00000, -18.26630, 30.34058, 19.25659, -102.25800, 18.08950,12098, 1626.00000, -285.00000, 1113.00000, -2.94647, 21.91772, 12.05444, -101.36100, 17.4915012138, 1804.00000, -280.00000, 944.00000, -2.64130, -57.42798, -40.61890, -100.46400, 16.893512178, 1933.00000, -102.00000, 786.00000, -1.60370, -21.66138, -16.08276, -100.46400, 16.893512218, 1844.00000, -180.00000, 896.00000, -0.01678, 1.65405, 0.39673, -100.46400, 17.34200, -12258, 1810.00000, -196.00000, 937.00000, -5.32684, -13.90991, -11.01685, -101.06200, 18.089512298, 1889.00000, -68.00000, 812.00000, -20.95184, -29.29077, -12.17651, -101.06200, 18.089512347, 1906.00000, -192.00000, 758.00000, -10.20966, -14.88647, 5.15747, -99.71650, 18.38850,12387, 1903.00000, -174.00000, 791.00000, -7.58514, 3.72925, -8.81958, -98.22150, 21.37850, -12427, 1893.00000, -221.00000, 795.00000, 9.38263, 4.40063, -6.37817, -98.37099, 21.22900, -412467, 1902.00000, -245.00000, 714.00000, 34.34601, 24.48120, -7.35474, -98.37099, 21.22900, 12507, 1844.00000, -88.00000, 880.00000, 24.51935, 2.87476, 0.45776, -99.26800, 18.83700, -4312547, 1892.00000, -37.00000, 839.00000, 8.16193, 0.92163, 3.63159, -99.26800, 18.83700, -43.05600
11814, 1827.00000, -198.00000, 944.00000, 1.50909, 0.00610, -0.03052, -101.95900, 15.99650, -11854, 1827.00000, -198.00000, 942.00000, 1.50909, -0.05493, -0.03052, -101.95900, 15.99650, 11894, 1824.00000, -195.00000, 942.00000, 1.44806, -0.05493, -0.03052, -101.95900, 15.99650, 11934, 1823.00000, -201.00000, 941.00000, 1.50909, -0.17700, 0.03052, -100.46400, 16.14600, -11974, 1785.00000, -183.00000, 976.00000, 0.47150, -7.07397, -2.77710, -102.55700, 18.83700, 12014, 1841.00000, -184.00000, 908.00000, 5.90363, -13.72681, -8.20923, -102.25800, 18.08950,12054, 1934.00000, -37.00000, 816.00000, -18.26630, 30.34058, 19.25659, -102.25800, 18.08950,12098, 1626.00000, -285.00000, 1113.00000, -2.94647, 21.91772, 12.05444, -101.36100, 17.4915012138, 1804.00000, -280.00000, 944.00000, -2.64130, -57.42798, -40.61890, -100.46400, 16.893512178, 1933.00000, -102.00000, 786.00000, -1.60370, -21.66138, -16.08276, -100.46400, 16.893512218, 1844.00000, -180.00000, 896.00000, -0.01678, 1.65405, 0.39673, -100.46400, 17.34200, -12258, 1810.00000, -196.00000, 937.00000, -5.32684, -13.90991, -11.01685, -101.06200, 18.089512298, 1889.00000, -68.00000, 812.00000, -20.95184, -29.29077, -12.17651, -101.06200, 18.089512347, 1906.00000, -192.00000, 758.00000, -10.20966, -14.88647, 5.15747, -99.71650, 18.38850,12387, 1903.00000, -174.00000, 791.00000, -7.58514, 3.72925, -8.81958, -98.22150, 21.37850, -12427, 1893.00000, -221.00000, 795.00000, 9.38263, 4.40063, -6.37817, -98.37099, 21.22900, -412467, 1902.00000, -245.00000, 714.00000, 34.34601, 24.48120, -7.35474, -98.37099, 21.22900, 12507, 1844.00000, -88.00000, 880.00000, 24.51935, 2.87476, 0.45776, -99.26800, 18.83700, -4312547, 1892.00000, -37.00000, 839.00000, 8.16193, 0.92163, 3.63159, -99.26800, 18.83700, -43.05600
11854, 1827.00000, -198.00000, 942.00000, 1.50909, -0.05493, -0.03052, -101.95900, 15.99650, 11894, 1824.00000, -195.00000, 942.00000, 1.44806, -0.05493, -0.03052, -101.95900, 15.99650, 11934, 1823.00000, -201.00000, 941.00000, 1.50909, -0.17700, 0.03052, -100.46400, 16.14600, -11974, 1785.00000, -183.00000, 976.00000, 0.47150, -7.07397, -2.77710, -102.55700, 18.83700, 12014, 1841.00000, -184.00000, 908.00000, 5.90363, -13.72681, -8.20923, -102.25800, 18.08950,12054, 1934.00000, -37.00000, 816.00000, -18.26630, 30.34058, 19.25659, -102.25800, 18.08950,12098, 1626.00000, -285.00000, 1113.00000, -2.94647, 21.91772, 12.05444, -101.36100, 17.4915012138, 1804.00000, -280.00000, 944.00000, -2.64130, -57.42798, -40.61890, -100.46400, 16.893512178, 1933.00000, -102.00000, 786.00000, -1.60370, -21.66138, -16.08276, -100.46400, 16.893512218, 1844.00000, -180.00000, 896.00000, -0.01678, 1.65405, 0.39673, -100.46400, 17.34200, -12258, 1810.00000, -196.00000, 937.00000, -5.32684, -13.90991, -11.01685, -101.06200, 18.089512298, 1889.00000, -68.00000, 812.00000, -20.95184, -29.29077, -12.17651, -101.06200, 18.089512347, 1906.00000, -192.00000, 758.00000, -10.20966, -14.88647, 5.15747, -99.71650, 18.38850,12387, 1903.00000, -174.00000, 791.00000, -7.58514, 3.72925, -8.81958, -98.22150, 21.37850, -12427, 1893.00000, -221.00000, 795.00000, 9.38263, 4.40063, -6.37817, -98.37099, 21.22900, -412467, 1902.00000, -245.00000, 714.00000, 34.34601, 24.48120, -7.35474, -98.37099, 21.22900, 12507, 1844.00000, -88.00000, 880.00000, 24.51935, 2.87476, 0.45776, -99.26800, 18.83700, -4312547, 1892.00000, -37.00000, 839.00000, 8.16193, 0.92163, 3.63159, -99.26800, 18.83700, -43.05600
11894, 1824.00000, -195.00000, 942.00000, 1.44806, -0.05493, -0.03052, -101.95900, 15.99650, 11934, 1823.00000, -201.00000, 941.00000, 1.50909, -0.17700, 0.03052, -100.46400, 16.14600, -11974, 1785.00000, -183.00000, 976.00000, 0.47150, -7.07397, -2.77710, -102.55700, 18.83700, 12014, 1841.00000, -184.00000, 908.00000, 5.90363, -13.72681, -8.20923, -102.25800, 18.08950,12054, 1934.00000, -37.00000, 816.00000, -18.26630, 30.34058, 19.25659, -102.25800, 18.08950,12098, 1626.00000, -285.00000, 1113.00000, -2.94647, 21.91772, 12.05444, -101.36100, 17.4915012138, 1804.00000, -280.00000, 944.00000, -2.64130, -57.42798, -40.61890, -100.46400, 16.893512178, 1933.00000, -102.00000, 786.00000, -1.60370, -21.66138, -16.08276, -100.46400, 16.893512218, 1844.00000, -180.00000, 896.00000, -0.01678, 1.65405, 0.39673, -100.46400, 17.34200, -12258, 1810.00000, -196.00000, 937.00000, -5.32684, -13.90991, -11.01685, -101.06200, 18.089512298, 1889.00000, -68.00000, 812.00000, -20.95184, -29.29077, -12.17651, -101.06200, 18.089512347, 1906.00000, -192.00000, 758.00000, -10.20966, -14.88647, 5.15747, -99.71650, 18.38850,12387, 1903.00000, -174.00000, 791.00000, -7.58514, 3.72925, -8.81958, -98.22150, 21.37850, -12427, 1893.00000, -221.00000, 795.00000, 9.38263, 4.40063, -6.37817, -98.37099, 21.22900, -412467, 1902.00000, -245.00000, 714.00000, 34.34601, 24.48120, -7.35474, -98.37099, 21.22900, 12507, 1844.00000, -88.00000, 880.00000, 24.51935, 2.87476, 0.45776, -99.26800, 18.83700, -4312547, 1892.00000, -37.00000, 839.00000, 8.16193, 0.92163, 3.63159, -99.26800, 18.83700, -43.05600
11934, 1823.00000, -201.00000, 941.00000, 1.50909, -0.17700, 0.03052, -100.46400, 16.14600, -11974, 1785.00000, -183.00000, 976.00000, 0.47150, -7.07397, -2.77710, -102.55700, 18.83700, 12014, 1841.00000, -184.00000, 908.00000, 5.90363, -13.72681, -8.20923, -102.25800, 18.08950,12054, 1934.00000, -37.00000, 816.00000, -18.26630, 30.34058, 19.25659, -102.25800, 18.08950,12098, 1626.00000, -285.00000, 1113.00000, -2.94647, 21.91772, 12.05444, -101.36100, 17.4915012138, 1804.00000, -280.00000, 944.00000, -2.64130, -57.42798, -40.61890, -100.46400, 16.893512178, 1933.00000, -102.00000, 786.00000, -1.60370, -21.66138, -16.08276, -100.46400, 16.893512218, 1844.00000, -180.00000, 896.00000, -0.01678, 1.65405, 0.39673, -100.46400, 17.34200, -12258, 1810.00000, -196.00000, 937.00000, -5.32684, -13.90991, -11.01685, -101.06200, 18.089512298, 1889.00000, -68.00000, 812.00000, -20.95184, -29.29077, -12.17651, -101.06200, 18.089512347, 1906.00000, -192.00000, 758.00000, -10.20966, -14.88647, 5.15747, -99.71650, 18.38850,12387, 1903.00000, -174.00000, 791.00000, -7.58514, 3.72925, -8.81958, -98.22150, 21.37850, -12427, 1893.00000, -221.00000, 795.00000, 9.38263, 4.40063, -6.37817, -98.37099, 21.22900, -412467, 1902.00000, -245.00000, 714.00000, 34.34601, 24.48120, -7.35474, -98.37099, 21.22900, 12507, 1844.00000, -88.00000, 880.00000, 24.51935, 2.87476, 0.45776, -99.26800, 18.83700, -4312547, 1892.00000, -37.00000, 839.00000, 8.16193, 0.92163, 3.63159, -99.26800, 18.83700, -43.05600
11974, 1785.00000, -183.00000, 976.00000, 0.47150, -7.07397, -2.77710, -102.55700, 18.83700, 12014, 1841.00000, -184.00000, 908.00000, 5.90363, -13.72681, -8.20923, -102.25800, 18.08950,12054, 1934.00000, -37.00000, 816.00000, -18.26630, 30.34058, 19.25659, -102.25800, 18.08950,12098, 1626.00000, -285.00000, 1113.00000, -2.94647, 21.91772, 12.05444, -101.36100, 17.4915012138, 1804.00000, -280.00000, 944.00000, -2.64130, -57.42798, -40.61890, -100.46400, 16.893512178, 1933.00000, -102.00000, 786.00000, -1.60370, -21.66138, -16.08276, -100.46400, 16.893512218, 1844.00000, -180.00000, 896.00000, -0.01678, 1.65405, 0.39673, -100.46400, 17.34200, -12258, 1810.00000, -196.00000, 937.00000, -5.32684, -13.90991, -11.01685, -101.06200, 18.089512298, 1889.00000, -68.00000, 812.00000, -20.95184, -29.29077, -12.17651, -101.06200, 18.089512347, 1906.00000, -192.00000, 758.00000, -10.20966, -14.88647, 5.15747, -99.71650, 18.38850,12387, 1903.00000, -174.00000, 791.00000, -7.58514, 3.72925, -8.81958, -98.22150, 21.37850, -12427, 1893.00000, -221.00000, 795.00000, 9.38263, 4.40063, -6.37817, -98.37099, 21.22900, -412467, 1902.00000, -245.00000, 714.00000, 34.34601, 24.48120, -7.35474, -98.37099, 21.22900, 12507, 1844.00000, -88.00000, 880.00000, 24.51935, 2.87476, 0.45776, -99.26800, 18.83700, -4312547, 1892.00000, -37.00000, 839.00000, 8.16193, 0.92163, 3.63159, -99.26800, 18.83700, -43.05600
12014, 1841.00000, -184.00000, 908.00000, 5.90363, -13.72681, -8.20923, -102.25800, 18.08950,12054, 1934.00000, -37.00000, 816.00000, -18.26630, 30.34058, 19.25659, -102.25800, 18.08950,12098, 1626.00000, -285.00000, 1113.00000, -2.94647, 21.91772, 12.05444, -101.36100, 17.4915012138, 1804.00000, -280.00000, 944.00000, -2.64130, -57.42798, -40.61890, -100.46400, 16.893512178, 1933.00000, -102.00000, 786.00000, -1.60370, -21.66138, -16.08276, -100.46400, 16.893512218, 1844.00000, -180.00000, 896.00000, -0.01678, 1.65405, 0.39673, -100.46400, 17.34200, -12258, 1810.00000, -196.00000, 937.00000, -5.32684, -13.90991, -11.01685, -101.06200, 18.089512298, 1889.00000, -68.00000, 812.00000, -20.95184, -29.29077, -12.17651, -101.06200, 18.089512347, 1906.00000, -192.00000, 758.00000, -10.20966, -14.88647, 5.15747, -99.71650, 18.38850,12387, 1903.00000, -174.00000, 791.00000, -7.58514, 3.72925, -8.81958, -98.22150, 21.37850, -12427, 1893.00000, -221.00000, 795.00000, 9.38263, 4.40063, -6.37817, -98.37099, 21.22900, -412467, 1902.00000, -245.00000, 714.00000, 34.34601, 24.48120, -7.35474, -98.37099, 21.22900, 12507, 1844.00000, -88.00000, 880.00000, 24.51935, 2.87476, 0.45776, -99.26800, 18.83700, -4312547, 1892.00000, -37.00000, 839.00000, 8.16193, 0.92163, 3.63159, -99.26800, 18.83700, -43.05600
12054, 1934.00000, -37.00000, 816.00000, -18.26630, 30.34058, 19.25659, -102.25800, 18.08950,12098, 1626.00000, -285.00000, 1113.00000, -2.94647, 21.91772, 12.05444, -101.36100, 17.4915012138, 1804.00000, -280.00000, 944.00000, -2.64130, -57.42798, -40.61890, -100.46400, 16.893512178, 1933.00000, -102.00000, 786.00000, -1.60370, -21.66138, -16.08276, -100.46400, 16.893512218, 1844.00000, -180.00000, 896.00000, -0.01678, 1.65405, 0.39673, -100.46400, 17.34200, -12258, 1810.00000, -196.00000, 937.00000, -5.32684, -13.90991, -11.01685, -101.06200, 18.089512298, 1889.00000, -68.00000, 812.00000, -20.95184, -29.29077, -12.17651, -101.06200, 18.089512347, 1906.00000, -192.00000, 758.00000, -10.20966, -14.88647, 5.15747, -99.71650, 18.38850,12387, 1903.00000, -174.00000, 791.00000, -7.58514, 3.72925, -8.81958, -98.22150, 21.37850, -12427, 1893.00000, -221.00000, 795.00000, 9.38263, 4.40063, -6.37817, -98.37099, 21.22900, -412467, 1902.00000, -245.00000, 714.00000, 34.34601, 24.48120, -7.35474, -98.37099, 21.22900, 12507, 1844.00000, -88.00000, 880.00000, 24.51935, 2.87476, 0.45776, -99.26800, 18.83700, -4312547, 1892.00000, -37.00000, 839.00000, 8.16193, 0.92163, 3.63159, -99.26800, 18.83700, -43.05600
12098, 1626.00000, -285.00000, 1113.00000, -2.94647, 21.91772, 12.05444, -101.36100, 17.4915012138, 1804.00000, -280.00000, 944.00000, -2.64130, -57.42798, -40.61890, -100.46400, 16.893512178, 1933.00000, -102.00000, 786.00000, -1.60370, -21.66138, -16.08276, -100.46400, 16.893512218, 1844.00000, -180.00000, 896.00000, -0.01678, 1.65405, 0.39673, -100.46400, 17.34200, -12258, 1810.00000, -196.00000, 937.00000, -5.32684, -13.90991, -11.01685, -101.06200, 18.089512298, 1889.00000, -68.00000, 812.00000, -20.95184, -29.29077, -12.17651, -101.06200, 18.089512347, 1906.00000, -192.00000, 758.00000, -10.20966, -14.88647, 5.15747, -99.71650, 18.38850,12387, 1903.00000, -174.00000, 791.00000, -7.58514, 3.72925, -8.81958, -98.22150, 21.37850, -12427, 1893.00000, -221.00000, 795.00000, 9.38263, 4.40063, -6.37817, -98.37099, 21.22900, -412467, 1902.00000, -245.00000, 714.00000, 34.34601, 24.48120, -7.35474, -98.37099, 21.22900, 12507, 1844.00000, -88.00000, 880.00000, 24.51935, 2.87476, 0.45776, -99.26800, 18.83700, -4312547, 1892.00000, -37.00000, 839.00000, 8.16193, 0.92163, 3.63159, -99.26800, 18.83700, -43.05600
12138, 1804.00000, -280.00000, 944.00000, -2.64130, -57.42798, -40.61890, -100.46400, 16.893512178, 1933.00000, -102.00000, 786.00000, -1.60370, -21.66138, -16.08276, -100.46400, 16.893512218, 1844.00000, -180.00000, 896.00000, -0.01678, 1.65405, 0.39673, -100.46400, 17.34200, -12258, 1810.00000, -196.00000, 937.00000, -5.32684, -13.90991, -11.01685, -101.06200, 18.089512298, 1889.00000, -68.00000, 812.00000, -20.95184, -29.29077, -12.17651, -101.06200, 18.089512347, 1906.00000, -192.00000, 758.00000, -10.20966, -14.88647, 5.15747, -99.71650, 18.38850,12387, 1903.00000, -174.00000, 791.00000, -7.58514, 3.72925, -8.81958, -98.22150, 21.37850, -12427, 1893.00000, -221.00000, 795.00000, 9.38263, 4.40063, -6.37817, -98.37099, 21.22900, -412467, 1902.00000, -245.00000, 714.00000, 34.34601, 24.48120, -7.35474, -98.37099, 21.22900, 12507, 1844.00000, -88.00000, 880.00000, 24.51935, 2.87476, 0.45776, -99.26800, 18.83700, -4312547, 1892.00000, -37.00000, 839.00000, 8.16193, 0.92163, 3.63159, -99.26800, 18.83700, -43.05600
12178, 1933.00000, -102.00000, 786.00000, -1.60370, -21.66138, -16.08276, -100.46400, 16.893512218, 1844.00000, -180.00000, 896.00000, -0.01678, 1.65405, 0.39673, -100.46400, 17.34200, -12258, 1810.00000, -196.00000, 937.00000, -5.32684, -13.90991, -11.01685, -101.06200, 18.089512298, 1889.00000, -68.00000, 812.00000, -20.95184, -29.29077, -12.17651, -101.06200, 18.089512347, 1906.00000, -192.00000, 758.00000, -10.20966, -14.88647, 5.15747, -99.71650, 18.38850,12387, 1903.00000, -174.00000, 791.00000, -7.58514, 3.72925, -8.81958, -98.22150, 21.37850, -12427, 1893.00000, -221.00000, 795.00000, 9.38263, 4.40063, -6.37817, -98.37099, 21.22900, -412467, 1902.00000, -245.00000, 714.00000, 34.34601, 24.48120, -7.35474, -98.37099, 21.22900, 12507, 1844.00000, -88.00000, 880.00000, 24.51935, 2.87476, 0.45776, -99.26800, 18.83700, -4312547, 1892.00000, -37.00000, 839.00000, 8.16193, 0.92163, 3.63159, -99.26800, 18.83700, -43.05600
12218, 1844.00000, -180.00000, 896.00000, -0.01678, 1.65405, 0.39673, -100.46400, 17.34200, -12258, 1810.00000, -196.00000, 937.00000, -5.32684, -13.90991, -11.01685, -101.06200, 18.089512298, 1889.00000, -68.00000, 812.00000, -20.95184, -29.29077, -12.17651, -101.06200, 18.089512347, 1906.00000, -192.00000, 758.00000, -10.20966, -14.88647, 5.15747, -99.71650, 18.38850,12387, 1903.00000, -174.00000, 791.00000, -7.58514, 3.72925, -8.81958, -98.22150, 21.37850, -12427, 1893.00000, -221.00000, 795.00000, 9.38263, 4.40063, -6.37817, -98.37099, 21.22900, -412467, 1902.00000, -245.00000, 714.00000, 34.34601, 24.48120, -7.35474, -98.37099, 21.22900, 12507, 1844.00000, -88.00000, 880.00000, 24.51935, 2.87476, 0.45776, -99.26800, 18.83700, -4312547, 1892.00000, -37.00000, 839.00000, 8.16193, 0.92163, 3.63159, -99.26800, 18.83700, -43.05600
12258, 1810.00000, -196.00000, 937.00000, -5.32684, -13.90991, -11.01685, -101.06200, 18.089512298, 1889.00000, -68.00000, 812.00000, -20.95184, -29.29077, -12.17651, -101.06200, 18.089512347, 1906.00000, -192.00000, 758.00000, -10.20966, -14.88647, 5.15747, -99.71650, 18.38850,12387, 1903.00000, -174.00000, 791.00000, -7.58514, 3.72925, -8.81958, -98.22150, 21.37850, -12427, 1893.00000, -221.00000, 795.00000, 9.38263, 4.40063, -6.37817, -98.37099, 21.22900, -412467, 1902.00000, -245.00000, 714.00000, 34.34601, 24.48120, -7.35474, -98.37099, 21.22900, 12507, 1844.00000, -88.00000, 880.00000, 24.51935, 2.87476, 0.45776, -99.26800, 18.83700, -4312547, 1892.00000, -37.00000, 839.00000, 8.16193, 0.92163, 3.63159, -99.26800, 18.83700, -43.05600
12298, 1889.00000, -68.00000, 812.00000, -20.95184, -29.29077, -12.17651, -101.06200, 18.089512347, 1906.00000, -192.00000, 758.00000, -10.20966, -14.88647, 5.15747, -99.71650, 18.38850,12387, 1903.00000, -174.00000, 791.00000, -7.58514, 3.72925, -8.81958, -98.22150, 21.37850, -12427, 1893.00000, -221.00000, 795.00000, 9.38263, 4.40063, -6.37817, -98.37099, 21.22900, -412467, 1902.00000, -245.00000, 714.00000, 34.34601, 24.48120, -7.35474, -98.37099, 21.22900, 12507, 1844.00000, -88.00000, 880.00000, 24.51935, 2.87476, 0.45776, -99.26800, 18.83700, -4312547, 1892.00000, -37.00000, 839.00000, 8.16193, 0.92163, 3.63159, -99.26800, 18.83700, -43.05600
