//--------- NEW START ---------//
// Drifter number: 1, Battery: 0.00
// IMU_update: 40 ms, GPS_update: 250 ms, Transciever_update: 8000 ms
// Accel_range: 16G, Gyro_range: 2000 dps
IMUtime, Ax, Ay, Az, Gx, Gy, Gz, Mx, My, Mz, P, T
41531, 11.00000, 1205.00000, 1705.00000, 1.44806, -0.17700, 0.21362, -44.10250, 28.70400, 21.52800,
41611, 23.00000, 1203.00000, 1695.00000, 1.57013, 0.12817, -0.03052, -44.10250, 28.70400, 21.52800,
41651, 7.00000, 1205.00000, 1702.00000, 1.44806, 0.06714, 0.03052, -44.10250, 28.70400, 21.52800,
41691, 10.00000, 1205.00000, 1696.00000, 1.32599, 0.31128, -0.15259, -44.10250, 28.70400, 21.52800,
41731, -3.00000, 1199.00000, 1708.00000, 1.38702, 0.06714, 0.03052, -43.80350, 29.90000, 20.93000,
41771, 3.00000, 1203.00000, 1695.00000, 1.32599, -0.23804, 0.27466, -37.82350, 31.09600, 17.79050,
41845, -3.00000, 1197.00000, 1691.00000, 1.38702, 0.25024, -0.27466, -42.30850, 26.91000, 19.43500,
41944, -6.00000, 1197.00000, 1701.00000, 1.38702, 0.00610, 0.03052, -39.31850, 28.40500, 18.08950,
41984, 11.00000, 1203.00000, 1699.00000, 1.50909, -0.17700, 0.21362, -39.31850, 28.40500, 18.08950,
42024, 17.00000, 1203.00000, 1693.00000, 1.57013, 0.00610, 0.09155, -39.61750, 28.55450, 17.49150,
42064, 23.00000, 1203.00000, 1697.00000, 1.38702, 0.18921, -0.03052, -39.91650, 27.05950, 20.03300,
42201, 10.00000, 1203.00000, 1705.00000, 1.50909, -0.11597, 0.15259, -43.20550, 26.61100, 19.28550,
42241, 14.00000, 1198.00000, 1690.00000, 1.38702, 0.00610, 0.09155, -42.60750, 26.46150, 20.48150,
42281, 17.00000, 1201.00000, 1693.00000, 1.38702, 0.18921, -0.03052, -42.60750, 26.46150, 20.48150,
42321, 11.00000, 1198.00000, 1690.00000, 1.38702, 0.12817, -0.09155, -38.72050, 26.91000, 17.64100,
42590, 2.00000, 1197.00000, 1696.00000, 1.44806, 0.06714, 0.03052, -44.85000, 25.41500, 21.22900,
42652, 7.00000, 1197.00000, 1700.00000, 1.50909, 0.12817, -0.03052, -44.85000, 25.41500, 21.22900,
42692, 16.00000, 1205.00000, 1696.00000, 1.44806, -0.11597, 0.15259, -44.85000, 25.41500, 21.22900,
42732, 11.00000, 1200.00000, 1693.00000, 1.38702, 0.12817, -0.03052, -44.85000, 25.41500, 21.22900,
42772, 12.00000, 1199.00000, 1697.00000, 1.44806, 0.06714, -0.03052, -43.80350, 26.91000, 21.97650,
42826, 7.00000, 1201.00000, 1697.00000, 1.44806, 0.12817, -0.03052, -43.80350, 25.41500, 21.52800,
42884, 10.00000, 1202.00000, 1702.00000, 1.57013, -0.11597, 0.21362, -42.30850, 24.96650, 19.88350,
42924, 6.00000, 1205.00000, 1695.00000, 1.50909, 0.06714, 0.03052, -42.30850, 24.96650, 19.88350,
42964, 13.00000, 1201.00000, 1695.00000, 1.44806, -0.05493, 0.03052, -42.15900, 26.31200, 21.37850,
43057, 1.00000, 1197.00000, 1687.00000, 1.57013, 0.18921, -0.03052, -45.74700, 25.56450, 21.07950,
43097, 10.00000, 1200.00000, 1702.00000, 1.38702, -0.05493, 0.09155, -44.85000, 26.91000, 21.22900,
43137, 4.00000, 1193.00000, 1692.00000, 1.63116, 0.00610, 0.09155, -44.85000, 26.91000, 21.22900,
43177, 11.00000, 1204.00000, 1687.00000, 1.44806, 0.12817, -0.09155, -44.85000, 26.91000, 21.22900,
43217, 6.00000, 1199.00000, 1702.00000, 1.44806, 0.00610, 0.09155, -44.85000, 26.91000, 21.22900,
43257, 12.00000, 1198.00000, 1697.00000, 1.50909, 0.12817, -0.09155, -41.56100, 27.65750, 18.38850,
43297, 1.00000, 1201.00000, 1697.00000, 1.50909, 0.12817, -0.03052, -38.72050, 27.20900, 17.64100,
43337, 10.00000, 1199.00000, 1692.00000, 1.44806, 0.06714, 0.09155, -43.20550, 25.86350, 21.37850,
43395, 9.00000, 1201.00000, 1696.00000, 1.38702, 0.12817, 0.03052, -40.51450, 26.46150, 20.18250,
43435, 15.00000, 1203.00000, 1698.00000, 1.44806, 0.06714, -0.09155, -44.99950, 26.31200, 22.12600,
43475, 5.00000, 1204.00000, 1696.00000, 1.50909, 0.06714, 0.03052, -42.75700, 26.31200, 22.12600,
43515, 1.00000, 1198.00000, 1696.00000, 1.50909, 0.12817, -0.03052, -42.75700, 26.31200, 21.07950,
43555, 10.00000, 1201.00000, 1698.00000, 1.50909, -0.05493, 0.15259, -38.12250, 29.60100, 17.49150,
43595, 11.00000, 1202.00000, 1694.00000, 1.44806, -0.05493, 0.09155, -43.20550, 26.31200, 21.07950,
43635, 10.00000, 1202.00000, 1698.00000, 1.38702, 0.06714, -0.03052, -41.71050, 28.55450, 21.82700,
43675, 8.00000, 1204.00000, 1700.00000, 1.44806, 0.06714, -0.03052, -41.71050, 28.55450, 21.82700,
43715, 8.00000, 1203.00000, 1693.00000, 1.57013, 0.06714, 0.03052, -41.71050, 28.55450, 21.82700,
43755, 4.00000, 1201.00000, 1695.00000, 1.44806, 0.12817, -0.09155, -41.71050, 28.55450, 21.82700,
43795, 11.00000, 1203.00000, 1701.00000, 1.44806, -0.05493, 0.15259, -42.75700, 26.31200, 21.07950,
43835, 10.00000, 1200.00000, 1698.00000, 1.50909, 0.06714, 0.03052, -45.29850, 26.31200, 20.63100,
43875, 15.00000, 1202.00000, 1697.00000, 1.44806, 0.00610, 0.03052, -41.41150, 26.61100, 20.03300,
43915, 6.00000, 1199.00000, 1696.00000, 1.50909, 0.12817, -0.03052, -41.41150, 26.61100, 20.03300,
43955, 7.00000, 1204.00000, 1694.00000, 1.50909, 0.18921, -0.09155, -43.20550, 27.05950, 21.37850,
43995, 5.00000, 1201.00000, 1697.00000, 1.44806, 0.00610, 0.21362, -43.50450, 27.05950, 20.63100,
44035, 19.00000, 1201.00000, 1698.00000, 1.44806, 0.06714, -0.03052, -44.10250, 24.96650, 21.22900,
44075, 16.00000, 1202.00000, 1699.00000, 1.50909, 0.00610, -0.03052, -44.10250, 27.20900, 20.93000,
44124, 12.00000, 1201.00000, 1696.00000, 1.44806, 0.12817, -0.03052, -41.56100, 26.16250, 20.18250,
44164, 6.00000, 1201.00000, 1693.00000, 1.44806, 0.18921, -0.09155, -41.56100, 26.16250, 20.18250,
44204, 12.00000, 1202.00000, 1694.00000, 1.44806, -0.05493, 0.15259, -41.56100, 26.16250, 20.18250,
44244, 10.00000, 1201.00000, 1696.00000, 1.44806, 0.12817, -0.03052, -41.56100, 26.16250, 20.18250,
44284, 14.00000, 1198.00000, 1699.00000, 1.38702, 0.12817, 0.15259, -42.45800, 27.35850, 21.82700,
44324, 7.00000, 1198.00000, 1696.00000, 1.38702, 0.12817, -0.09155, -43.80350, 27.65750, 21.52800,
44374, 11.00000, 1203.00000, 1697.00000, 1.38702, 0.06714, 0.03052, -43.95300, 25.56450, 20.63100,
44414, 12.00000, 1201.00000, 1698.00000, 1.38702, 0.06714, 0.03052, -45.29850, 27.35850, 21.37850,
44454, 13.00000, 1204.00000, 1699.00000, 1.44806, 0.06714, 0.03052, -45.29850, 27.35850, 21.37850,
44494, 14.00000, 1201.00000, 1697.00000, 1.50909, 0.00610, 0.03052, -41.56100, 27.65750, 20.93000,
44534, 10.00000, 1202.00000, 1698.00000, 1.44806, 0.18921, -0.03052, -42.75700, 26.31200, 19.28550,
44574, 8.00000, 1204.00000, 1700.00000, 1.57013, 0.18921, -0.03052, -43.20550, 24.81700, 21.07950,
44623, 13.00000, 1202.00000, 1700.00000, 1.44806, 0.00610, 0.03052, -43.95300, 24.81700, 22.12600,
44663, 9.00000, 1201.00000, 1703.00000, 1.50909, 0.06714, 0.09155, -43.95300, 24.81700, 22.12600,
44703, 12.00000, 1203.00000, 1693.00000, 1.50909, 0.00610, -0.03052, -43.95300, 24.81700, 22.12600,
44743, 6.00000, 1202.00000, 1700.00000, 1.44806, 0.06714, -0.03052, -43.95300, 24.81700, 22.12600,
44783, 10.00000, 1200.00000, 1700.00000, 1.50909, 0.18921, -0.03052, -42.60750, 26.46150, 22.27550,
44823, 9.00000, 1202.00000, 1698.00000, 1.44806, 0.00610, 0.03052, -43.50450, 25.86350, 20.03300,
44874, 13.00000, 1200.00000, 1700.00000, 1.44806, 0.00610, 0.09155, -43.80350, 26.46150, 21.52800,
44914, 13.00000, 1195.00000, 1695.00000, 1.50909, 0.18921, -0.03052, -44.70050, 25.86350, 20.63100,
44954, 7.00000, 1203.00000, 1695.00000, 1.50909, 0.00610, 0.03052, -44.70050, 25.86350, 20.63100,
44994, 5.00000, 1197.00000, 1692.00000, 1.44806, 0.00610, 0.09155, -43.80350, 24.96650, 23.32200,
45034, 8.00000, 1199.00000, 1699.00000, 1.44806, 0.06714, -0.03052, -43.05600, 27.20900, 22.27550,
45074, 15.00000, 1201.00000, 1700.00000, 1.50909, 0.00610, 0.21362, -45.59750, 27.95650, 21.97650,
45124, 6.00000, 1206.00000, 1700.00000, 1.44806, 0.12817, -0.03052, -43.80350, 27.20900, 20.18250,
45164, 12.00000, 1199.00000, 1699.00000, 1.44806, 0.06714, -0.09155, -42.45800, 26.31200, 20.03300,
45204, 11.00000, 1199.00000, 1697.00000, 1.38702, 0.06714, 0.03052, -42.45800, 26.31200, 20.03300,
45244, 10.00000, 1199.00000, 1698.00000, 1.38702, 0.06714, -0.03052, -42.45800, 26.31200, 20.03300,
45284, 13.00000, 1202.00000, 1699.00000, 1.44806, 0.06714, 0.03052, -42.45800, 26.31200, 20.03300,
45324, 8.00000, 1201.00000, 1696.00000, 1.38702, 0.00610, 0.03052, -42.30850, 26.91000, 20.18250,
45373, 7.00000, 1202.00000, 1693.00000, 1.57013, 0.06714, 0.03052, -43.95300, 26.31200, 21.82700,
45413, 10.00000, 1208.00000, 1706.00000, 1.32599, 0.06714, -0.03052, -43.05600, 27.20900, 21.22900,
45453, 11.00000, 1201.00000, 1701.00000, 1.57013, -0.05493, 0.09155, -44.99950, 25.86350, 22.12600,
45493, 12.00000, 1198.00000, 1695.00000, 1.44806, 0.18921, -0.09155, -44.99950, 25.86350, 22.12600,
45533, 8.00000, 1204.00000, 1702.00000, 1.50909, -0.05493, 0.09155, -44.10250, 26.46150, 19.43500,
45573, 11.00000, 1204.00000, 1697.00000, 1.57013, 0.06714, 0.03052, -44.85000, 27.20900, 20.48150,
45624, 10.00000, 1200.00000, 1698.00000, 1.44806, 0.06714, -0.03052, -43.95300, 25.56450, 22.12600,
45664, 9.00000, 1199.00000, 1696.00000, 1.38702, 0.00610, 0.15259, -43.35500, 26.46150, 21.22900,
45704, 9.00000, 1200.00000, 1698.00000, 1.50909, 0.12817, -0.03052, -43.35500, 26.46150, 21.22900,
45744, 11.00000, 1203.00000, 1693.00000, 1.44806, 0.12817, 0.03052, -43.35500, 26.46150, 21.22900,
45784, 9.00000, 1201.00000, 1695.00000, 1.38702, 0.00610, -0.03052, -43.35500, 26.46150, 21.22900,
45824, 8.00000, 1197.00000, 1693.00000, 1.50909, 0.06714, -0.03052, -41.86000, 27.20900, 19.88350,
45874, 7.00000, 1205.00000, 1698.00000, 1.38702, 0.12817, 0.03052, -43.05600, 27.65750, 20.48150,
45914, 15.00000, 1202.00000, 1702.00000, 1.44806, 0.00610, 0.09155, -44.25200, 25.86350, 21.37850,
45954, 9.00000, 1203.00000, 1697.00000, 1.50909, 0.06714, -0.03052, -43.05600, 26.16250, 20.93000,
45994, 6.00000, 1203.00000, 1698.00000, 1.44806, 0.06714, -0.03052, -44.70050, 26.16250, 20.93000,
46034, 11.00000, 1202.00000, 1698.00000, 1.50909, 0.06714, -0.09155, -44.70050, 27.05950, 19.28550,
46074, 9.00000, 1202.00000, 1697.00000, 1.57013, 0.00610, 0.09155, -41.26200, 29.45150, 19.88350,
46122, 11.00000, 1200.00000, 1695.00000, 1.44806, 0.06714, 0.03052, -43.95300, 26.31200, 22.42500,
46162, 8.00000, 1195.00000, 1692.00000, 1.50909, 0.18921, -0.09155, -42.75700, 26.31200, 22.12600,
46202, 7.00000, 1201.00000, 1695.00000, 1.44806, 0.06714, -0.03052, -42.75700, 26.31200, 22.12600,
46242, 8.00000, 1202.00000, 1698.00000, 1.50909, 0.06714, 0.15259, -42.75700, 26.31200, 22.12600,
46282, 11.00000, 1198.00000, 1696.00000, 1.50909, 0.18921, -0.09155, -42.75700, 26.31200, 22.12600,
46322, 5.00000, 1198.00000, 1692.00000, 1.44806, 0.12817, -0.03052, -40.96300, 28.55450, 18.53800,
46375, 9.00000, 1200.00000, 1697.00000, 1.38702, 0.18921, -0.09155, -43.50450, 25.56450, 19.58450,
46415, 10.00000, 1203.00000, 1698.00000, 1.44806, -0.05493, 0.09155, -41.41150, 25.86350, 18.23900,
46455, 5.00000, 1201.00000, 1693.00000, 1.44806, 0.12817, 0.03052, -44.70050, 27.05950, 20.63100,
46495, 7.00000, 1204.00000, 1698.00000, 1.50909, 0.12817, -0.09155, -43.95300, 27.05950, 20.63100,
46535, 5.00000, 1203.00000, 1699.00000, 1.44806, 0.00610, 0.15259, -43.95300, 27.05950, 20.63100,
46575, 7.00000, 1199.00000, 1697.00000, 1.44806, 0.12817, 0.03052, -42.45800, 26.61100, 21.37850,
46623, 11.00000, 1201.00000, 1697.00000, 1.50909, 0.12817, -0.03052, -42.60750, 26.46150, 20.48150,
46663, 8.00000, 1201.00000, 1698.00000, 1.44806, 0.06714, 0.03052, -42.45800, 28.10600, 19.58450,
46703, 8.00000, 1200.00000, 1699.00000, 1.50909, 0.06714, 0.03052, -43.05600, 26.91000, 22.72400,
46743, 8.00000, 1202.00000, 1698.00000, 1.44806, 0.00610, 0.03052, -43.05600, 26.91000, 22.72400,
46783, 6.00000, 1204.00000, 1696.00000, 1.44806, 0.06714, -0.03052, -43.05600, 26.91000, 22.72400,
46823, 11.00000, 1201.00000, 1699.00000, 1.44806, 0.06714, 0.09155, -43.05600, 26.91000, 22.72400,
46872, 7.00000, 1203.00000, 1695.00000, 1.50909, 0.00610, 0.03052, -41.71050, 27.35850, 18.98650,
46912, 8.00000, 1200.00000, 1692.00000, 1.44806, 0.18921, -0.03052, -41.41150, 28.85350, 19.28550,
46952, 3.00000, 1201.00000, 1698.00000, 1.50909, 0.06714, -0.09155, -44.25200, 25.86350, 21.37850,
46992, 3.00000, 1197.00000, 1696.00000, 1.50909, 0.06714, 0.03052, -45.14900, 25.71400, 21.22900,
47032, 9.00000, 1203.00000, 1693.00000, 1.50909, 0.12817, -0.03052, -44.25200, 26.31200, 21.82700,
47072, 9.00000, 1199.00000, 1693.00000, 1.50909, 0.06714, 0.09155, -44.25200, 26.31200, 21.82700,
47123, 14.00000, 1201.00000, 1697.00000, 1.50909, 0.12817, 0.03052, -41.71050, 28.55450, 19.58450,
47163, 8.00000, 1204.00000, 1691.00000, 1.57013, 0.06714, -0.03052, -41.41150, 28.55450, 21.07950,
47203, 9.00000, 1199.00000, 1694.00000, 1.50909, 0.06714, 0.03052, -44.40150, 26.46150, 19.13600,
47243, 5.00000, 1198.00000, 1700.00000, 1.44806, 0.06714, 0.03052, -44.40150, 26.46150, 19.13600,
47283, 10.00000, 1203.00000, 1696.00000, 1.44806, 0.06714, 0.03052, -44.40150, 26.46150, 19.13600,
47323, 11.00000, 1202.00000, 1696.00000, 1.44806, 0.06714, 0.03052, -44.40150, 26.46150, 19.13600,
47374, 10.00000, 1201.00000, 1694.00000, 1.57013, 0.06714, -0.03052, -44.10250, 28.40500, 20.18250,
47414, 7.00000, 1197.00000, 1693.00000, 1.50909, 0.12817, -0.03052, -42.30850, 27.65750, 18.68750,
47454, 11.00000, 1199.00000, 1701.00000, 1.50909, 0.06714, 0.03052, -42.45800, 26.31200, 20.33200,
47494, 10.00000, 1198.00000, 1697.00000, 1.50909, 0.06714, 0.03052, -43.95300, 26.31200, 21.07950,
47534, 8.00000, 1201.00000, 1697.00000, 1.38702, 0.06714, -0.03052, -43.20550, 27.80700, 20.63100,
47574, 9.00000, 1202.00000, 1695.00000, 1.38702, -0.05493, 0.09155, -43.20550, 27.80700, 20.63100,
47622, 6.00000, 1202.00000, 1697.00000, 1.44806, 0.06714, -0.03052, -43.80350, 26.16250, 21.22900,
47662, 9.00000, 1199.00000, 1698.00000, 1.44806, 0.06714, 0.03052, -42.15900, 27.35850, 19.28550,
47702, 7.00000, 1196.00000, 1694.00000, 1.50909, 0.18921, -0.09155, -41.56100, 28.40500, 18.38850,
47742, 13.00000, 1198.00000, 1696.00000, 1.38702, 0.12817, 0.03052, -41.56100, 28.40500, 18.38850,
47782, 10.00000, 1199.00000, 1699.00000, 1.44806, 0.00610, 0.15259, -41.56100, 28.40500, 18.38850,
47822, 6.00000, 1198.00000, 1688.00000, 1.50909, 0.18921, -0.15259, -41.56100, 28.40500, 18.38850,
47872, 4.00000, 1197.00000, 1699.00000, 1.44806, 0.12817, -0.03052, -42.30850, 27.95650, 19.13600,
47912, 8.00000, 1200.00000, 1695.00000, 1.38702, 0.06714, -0.03052, -42.30850, 27.95650, 19.13600,
47952, 6.00000, 1200.00000, 1695.00000, 1.44806, 0.12817, 0.03052, -42.45800, 28.85350, 20.03300,
47992, 9.00000, 1197.00000, 1695.00000, 1.44806, 0.06714, 0.09155, -43.20550, 25.86350, 21.82700,
48032, 7.00000, 1200.00000, 1699.00000, 1.50909, 0.25024, -0.03052, -43.50450, 26.31200, 21.37850,
48072, 11.00000, 1203.00000, 1696.00000, 1.50909, 0.00610, -0.03052, -44.25200, 25.56450, 20.33200,
48124, 15.00000, 1200.00000, 1700.00000, 1.44806, 0.12817, 0.03052, -42.15900, 27.80700, 18.98650,
48164, 12.00000, 1202.00000, 1701.00000, 1.50909, 0.06714, 0.03052, -42.15900, 27.80700, 18.98650,
48204, 8.00000, 1197.00000, 1691.00000, 1.57013, 0.12817, -0.15259, -43.95300, 26.61100, 20.33200,
48244, 6.00000, 1201.00000, 1700.00000, 1.38702, 0.12817, 0.09155, -41.71050, 28.10600, 20.63100,
48284, 11.00000, 1201.00000, 1699.00000, 1.50909, -0.05493, 0.09155, -41.71050, 28.10600, 20.63100,
48324, 8.00000, 1197.00000, 1696.00000, 1.50909, 0.18921, -0.09155, -41.71050, 28.10600, 20.63100,
48371, 8.00000, 1200.00000, 1696.00000, 1.44806, 0.06714, 0.03052, -42.60750, 29.45150, 19.43500,
48411, 5.00000, 1196.00000, 1694.00000, 1.50909, 0.12817, -0.03052, -42.60750, 29.45150, 19.43500,
48451, 8.00000, 1202.00000, 1696.00000, 1.44806, 0.00610, 0.03052, -44.99950, 25.11600, 20.63100,
48491, 8.00000, 1199.00000, 1695.00000, 1.38702, 0.00610, 0.09155, -42.60750, 26.91000, 20.93000,
48531, 10.00000, 1202.00000, 1696.00000, 1.50909, 0.18921, -0.09155, -42.45800, 26.61100, 20.33200,
48571, 5.00000, 1205.00000, 1698.00000, 1.38702, 0.00610, 0.03052, -44.25200, 26.61100, 20.03300,
48625, 13.00000, 1200.00000, 1704.00000, 1.50909, -0.05493, 0.15259, -43.20550, 24.81700, 22.12600,
48665, 11.00000, 1199.00000, 1693.00000, 1.57013, 0.06714, -0.03052, -43.05600, 25.71400, 21.97650,
48705, 5.00000, 1200.00000, 1695.00000, 1.32599, 0.06714, -0.03052, -43.05600, 25.71400, 21.97650,
48745, 9.00000, 1199.00000, 1699.00000, 1.44806, 0.06714, -0.09155, -41.41150, 27.35850, 18.53800,
48785, 8.00000, 1202.00000, 1694.00000, 1.50909, 0.00610, 0.09155, -41.71050, 26.31200, 21.82700,
48825, 10.00000, 1201.00000, 1696.00000, 1.50909, 0.06714, 0.03052, -41.71050, 26.31200, 21.82700,
48873, 13.00000, 1198.00000, 1695.00000, 1.44806, 0.12817, 0.03052, -41.71050, 26.31200, 21.82700,
48913, 7.00000, 1203.00000, 1696.00000, 1.44806, 0.06714, -0.03052, -43.50450, 26.31200, 22.12600,
48953, 7.00000, 1199.00000, 1693.00000, 1.44806, -0.05493, 0.15259, -43.50450, 26.31200, 22.12600,
48993, 12.00000, 1205.00000, 1705.00000, 1.50909, 0.18921, -0.15259, -45.14900, 27.95650, 20.48150,
49033, 5.00000, 1197.00000, 1699.00000, 1.75323, 0.31128, -0.03052, -42.45800, 26.61100, 20.33200,
49073, 7.00000, 1192.00000, 1683.00000, 1.63116, 0.06714, 0.09155, -45.14900, 27.20900, 20.93000,
49120, 1.00000, 1204.00000, 1701.00000, 1.44806, 0.06714, -0.03052, -44.25200, 24.81700, 21.37850,
49160, 16.00000, 1199.00000, 1695.00000, 1.50909, -0.11597, 0.15259, -43.35500, 26.46150, 20.48150,
49200, 8.00000, 1200.00000, 1694.00000, 1.38702, 0.25024, -0.03052, -43.35500, 26.46150, 20.48150,
49240, 7.00000, 1201.00000, 1696.00000, 1.38702, 0.00610, 0.15259, -43.05600, 27.20900, 20.18250,
49280, 12.00000, 1197.00000, 1702.00000, 1.44806, 0.12817, -0.09155, -40.36500, 27.35850, 20.33200,
49320, 8.00000, 1204.00000, 1698.00000, 1.44806, -0.05493, 0.03052, -40.36500, 27.35850, 20.33200,
49398, 5.00000, 1200.00000, 1696.00000, 1.44806, 0.06714, -0.03052, -40.36500, 27.35850, 20.33200,
49438, 9.00000, 1197.00000, 1693.00000, 1.44806, 0.00610, 0.15259, -40.36500, 27.35850, 20.33200,
49478, 8.00000, 1201.00000, 1694.00000, 1.44806, 0.12817, -0.09155, -38.27200, 27.95650, 18.38850,
49518, 18.00000, 1209.00000, 1690.00000, 3.82843, -10.55298, -26.39771, -43.05600, 26.46150, 21.97650,
49545, 122.00000, 1099.00000, 1797.00000, 3.88947, -10.79712, -41.41235, -43.05600, 26.46150, 21.97650,
49554, 74.00000, 1205.00000, 1689.00000, 7.18536, -1.27563, -37.56714, -39.16900, 26.61100, 20.63100,
49571, -40.00000, 1359.00000, 1637.00000, -5.81512, -14.21509, -35.98022, -39.16900, 26.61100, 20.63100,
49579, 35.00000, 1476.00000, 1626.00000, -20.52460, -23.73657, -38.84888, -39.16900, 26.61100, 20.63100,
49612, 60.00000, 1045.00000, 3839.00000, 3.09601, -49.06616, 11.93237, -37.82350, 19.88350, 22.87350,
49664, 49.00000, 1247.00000, 4023.00000, 15.97443, -57.06177, 27.43530, -37.82350, 19.88350, 22.87350,
49696, 440.00000, 2367.00000, 5088.00000, -8.19550, -76.59302, 64.48364, -37.82350, 19.88350, 22.87350,
49711, 538.00000, 2753.00000, 5700.00000, -53.91083, -66.27808, 68.51196, -43.50450, 18.83700, 24.21900,
49741, 860.00000, 3182.00000, 7844.00000, -261.18622, -6.52466, 54.22974, -43.50450, 18.83700, 24.21900,
49771, 1121.00000, 3496.00000, 8268.00000, -349.25995, -72.80884, 76.08032, -43.05600, 9.71750, 27.65750,
49782, 927.00000, 3625.00000, 7736.00000, -342.72919, -128.04565, 103.66821, -43.05600, 9.71750, 27.65750,
49811, 350.00000, 3195.00000, 4922.00000, -225.11444, -200.31128, 204.55933, -40.36500, -0.89700, 24.21900,
49825, 57.00000, 1614.00000, 2451.00000, -49.94354, -179.01001, 211.70044, -40.36500, -0.89700, 24.21900,
49857, 4.00000, 120.00000, 198.00000, 95.01495, -159.60083, 212.98218, -40.36500, -0.89700, 24.21900,
49864, -18.00000, -38.00000, -32.00000, 102.33917, -164.05640, 214.20288, -40.36500, -0.89700, 24.21900,
49914, -16.00000, -40.00000, -35.00000, 101.30157, -165.33813, 214.32495, -40.36500, -0.89700, 24.21900,
49922, -15.00000, -38.00000, -32.00000, 100.20294, -166.68091, 214.44702, -40.36500, -0.89700, 24.21900,
49956, -11.00000, -35.00000, -17.00000, 95.07599, -172.11304, 214.75220, -40.36500, -0.89700, 24.21900,
49986, -6.00000, -36.00000, -14.00000, 90.92560, -176.38550, 214.38599, -40.36500, -0.89700, 24.21900,
49997, -5.00000, -37.00000, -7.00000, 89.46075, -177.85034, 214.26392, -72.65700, 14.50150, 24.81700,
50027, -2.00000, -35.00000, 1.00000, 85.24933, -181.75659, 213.53149, -72.65700, 14.50150, 24.81700,
50036, -2.00000, -37.00000, 1.00000, 84.21173, -182.79419, 213.28735, -72.65700, 14.50150, 24.81700,
50051, 0.00000, -38.00000, 2.00000, 82.13654, -184.50317, 212.61597, -77.59050, 15.39850, 19.28550,
50091, 6.00000, -36.00000, 3.00000, 76.76544, -188.65356, 211.15112, -77.59050, 15.39850, 19.28550,
50166, 12.00000, -37.00000, 9.00000, 66.14532, -195.42847, 208.40454, -87.75650, 6.87700, 9.26900,
50206, 11.00000, -39.00000, 10.00000, 60.59113, -198.48022, 207.12280, -95.08200, -0.74750, 5.68100,
50216, 13.00000, -39.00000, 8.00000, 59.24835, -199.27368, 206.87866, -95.08200, -0.74750, 5.68100,
50256, 12.00000, -43.00000, 10.00000, 53.93829, -202.08130, 205.59692, -97.32450, -6.27900, -1.64450,
50261, 14.00000, -42.00000, 10.00000, 53.08380, -202.50854, 205.35278, -97.32450, -6.27900, -1.64450,
50270, 12.00000, -42.00000, 9.00000, 51.98517, -203.05786, 205.04761, -97.32450, -6.27900, -1.64450,
50276, 14.00000, -41.00000, 9.00000, 51.25275, -203.48511, 204.92554, -97.32450, -6.27900, -1.64450,
50285, 13.00000, -45.00000, 10.00000, 50.21515, -203.97339, 204.55933, -97.32450, -6.27900, -1.64450,
50294, 11.00000, -45.00000, 11.00000, 49.05548, -204.40063, 204.25415, -92.83950, -10.61450, -10.46500,
50302, 13.00000, -45.00000, 11.00000, 48.13995, -204.88892, 204.01001, -92.83950, -10.61450, -10.46500,
50310, 13.00000, -47.00000, 12.00000, 47.22443, -205.25513, 203.70483, -92.83950, -10.61450, -10.46500,
50317, 12.00000, -48.00000, 11.00000, 46.43097, -205.62134, 203.52173, -92.83950, -10.61450, -10.46500,
50325, 11.00000, -47.00000, 14.00000, 45.51544, -205.92651, 203.27759, -92.83950, -10.61450, -10.46500,
50334, 13.00000, -48.00000, 13.00000, 44.47784, -206.35376, 202.97241, -92.83950, -10.61450, -10.46500,
50343, 15.00000, -49.00000, 11.00000, 43.50128, -206.71997, 202.78931, -91.04550, -16.59450, -14.65100,
50349, 16.00000, -49.00000, 11.00000, 42.82990, -206.96411, 202.60620, -91.04550, -16.59450, -14.65100,
50358, 14.00000, -50.00000, 13.00000, 41.85333, -207.33032, 202.30103, -91.04550, -16.59450, -14.65100,
50364, 16.00000, -52.00000, 12.00000, 41.12091, -207.57446, 202.17896, -91.04550, -16.59450, -14.65100,
50374, 16.00000, -57.00000, 11.00000, 38.25226, -208.48999, 201.75171, -91.04550, -16.59450, -14.65100,
50402, 14.00000, -57.00000, 14.00000, 37.51984, -208.73413, 201.56860, -91.04550, -16.59450, -14.65100,
50409, 17.00000, -55.00000, 14.00000, 36.84845, -208.91724, 201.56860, -91.04550, -16.59450, -14.65100,
50417, 17.00000, -56.00000, 12.00000, 36.11603, -209.16138, 201.62964, -91.04550, -16.59450, -14.65100,
50426, 14.00000, -57.00000, 11.00000, 35.13947, -209.52759, 201.56860, -91.04550, -16.59450, -14.65100,
50435, 15.00000, -59.00000, 7.00000, 34.22394, -209.89380, 201.62964, -91.04550, -16.59450, -14.65100,
50441, 13.00000, -57.00000, 7.00000, 33.43048, -210.19897, 201.69067, -91.04550, -16.59450, -14.65100,
50450, 11.00000, -58.00000, 9.00000, 32.45392, -210.62622, 201.81274, -91.04550, -16.59450, -14.65100,
50456, 12.00000, -58.00000, 11.00000, 31.84356, -210.93140, 201.87378, -91.04550, -16.59450, -14.65100,
50469, 5.00000, -62.00000, 9.00000, 30.56183, -211.48071, 201.99585, -91.04550, -16.59450, -14.65100,
50476, 2.00000, -67.00000, 6.00000, 29.70734, -211.84692, 202.11792, -91.04550, -16.59450, -14.65100,
50484, 4.00000, -69.00000, 6.00000, 28.91388, -212.15210, 202.23999, -91.04550, -16.59450, -14.65100,
50491, 2.00000, -72.00000, 4.00000, 28.05939, -212.51831, 202.42310, -91.04550, -16.59450, -14.65100,
50499, 1.00000, -73.00000, 9.00000, 27.38800, -212.76245, 202.54517, -91.04550, -16.59450, -14.65100,
50509, 1.00000, -74.00000, 5.00000, 26.16730, -213.25073, 202.85034, -91.04550, -16.59450, -14.65100,
50515, 3.00000, -77.00000, 4.00000, 25.43488, -213.43384, 202.91138, -91.04550, -16.59450, -14.65100,
50524, 3.00000, -78.00000, 5.00000, 24.51935, -213.80005, 203.15552, -91.04550, -16.59450, -14.65100,
50530, 2.00000, -81.00000, 5.00000, 23.84796, -213.92212, 203.27759, -91.04550, -16.59450, -14.65100,
50539, 5.00000, -83.00000, 10.00000, 23.05450, -214.16626, 203.39966, -61.14550, -33.63750, -30.49800,
50549, 5.00000, -83.00000, 12.00000, 22.20001, -214.41040, 203.64380, -61.14550, -33.63750, -30.49800,
50576, 7.00000, -83.00000, 3.00000, 19.69757, -215.32593, 204.49829, -61.14550, -33.63750, -30.49800,
50584, 9.00000, -82.00000, 4.00000, 18.96515, -215.50903, 204.68140, -61.14550, -33.63750, -30.49800,
50591, 11.00000, -85.00000, 8.00000, 18.17169, -215.81421, 204.86450, -52.92300, -36.32850, -28.85350,
50599, 13.00000, -82.00000, 8.00000, 17.13409, -215.99731, 205.04761, -52.92300, -36.32850, -28.85350,
50608, 637.00000, -2442.00000, 2936.00000, -44.38934, -161.00464, 268.40210, -52.92300, -36.32850, -28.85350,
50616, 1335.00000, -10950.00000, 6273.00000, -525.16327, 166.26587, 900.29907, -52.92300, -36.32850, -28.85350,
50643, -2681.00000, 2199.00000, -1572.00000, -923.53973, -5.24292, 643.70728, -32.29200, -1.19600, -54.41800,
50673, -2470.00000, 484.00000, 814.00000, -886.12518, -29.41284, 436.43188, -32.29200, -1.19600, -54.41800,
50680, -3389.00000, -251.00000, 1743.00000, -717.85126, 54.63257, 378.57056, -32.29200, -1.19600, -54.41800,
50689, -4602.00000, 1294.00000, -37.00000, -522.23358, 156.19507, 304.16870, -41.41150, 33.03950, -31.39500,
50698, -4747.00000, 2432.00000, -2074.00000, -383.01239, 206.36597, 180.45044, -41.41150, 33.03950, -31.39500,
50705, -4392.00000, 2887.00000, -2626.00000, -330.40009, 180.85327, 139.19067, -41.41150, 33.03950, -31.39500,
50713, -3773.00000, 3256.00000, -2513.00000, -244.03534, 99.67651, 78.39966, -41.41150, 33.03950, -31.39500,
50723, -3076.00000, 3310.00000, -1817.00000, -169.51141, -7.98950, 21.57593, -41.41150, 33.03950, -31.39500,
50730, -2755.00000, 3193.00000, -1055.00000, -128.43475, -64.14185, 6.07300, -41.41150, 33.03950, -31.39500,
50738, -2580.00000, 3043.00000, -394.00000, -82.65839, -99.35913, 10.34546, -42.15900, 37.07600, -27.80700,
50745, -2602.00000, 2913.00000, -94.00000, -37.49237, -114.31274, 21.45386, -42.15900, 37.07600, -27.80700,
50752, -2749.00000, 2676.00000, 25.00000, 3.95050, -127.92358, 36.95679, -42.15900, 37.07600, -27.80700,
50782, -2137.00000, 926.00000, 501.00000, 69.62433, -127.37426, 102.08130, -42.15900, 37.07600, -27.80700,
50791, -1881.00000, 764.00000, 582.00000, 48.93341, -114.73999, 105.37720, -40.96300, 39.01950, -29.90000,
50797, -1728.00000, 881.00000, 674.00000, 24.82452, -105.21851, 102.99683, -40.96300, 39.01950, -29.90000,
50806, -1606.00000, 1252.00000, 726.00000, -13.20038, -88.49487, 93.65845, -40.96300, 39.01950, -29.90000,
50812, -1603.00000, 1510.00000, 703.00000, -41.21552, -77.02026, 89.87427, -40.96300, 39.01950, -29.90000,
50822, -1578.00000, 1803.00000, 684.00000, -84.48944, -60.05249, 90.36255, -40.96300, 39.01950, -29.90000,
50830, -1476.00000, 1841.00000, 712.00000, -107.80487, -57.85522, 94.63501, -40.96300, 39.01950, -29.90000,
50837, -1177.00000, 1856.00000, 764.00000, -123.49091, -71.16089, 107.33032, -43.50450, 39.76700, -26.31200,
50845, -801.00000, 1818.00000, 797.00000, -140.33661, -90.08179, 130.58472, -43.50450, 39.76700, -26.31200,
50852, -440.00000, 1739.00000, 816.00000, -155.77850, -110.77271, 152.61841, -43.50450, 39.76700, -26.31200,
50863, -126.00000, 1647.00000, 803.00000, -169.99969, -151.36108, 159.88159, -43.50450, 39.76700, -26.31200,
50869, -57.00000, 1553.00000, 764.00000, -171.95282, -172.84546, 148.77319, -43.50450, 39.76700, -26.31200,
50878, -66.00000, 1350.00000, 744.00000, -164.44550, -177.48413, 120.33081, -43.50450, 39.76700, -26.31200,
50884, -116.00000, 1149.00000, 779.00000, -153.33710, -161.85913, 96.77124, -43.50450, 39.76700, -26.31200,
50894, -439.00000, 408.00000, 540.00000, -131.30341, -52.11792, 17.79175, -44.99950, 47.54100, -21.37850,
50922, -633.00000, 516.00000, 570.00000, -133.74481, -26.30005, 0.39673, -44.99950, 47.54100, -21.37850,
50929, -854.00000, 681.00000, 635.00000, -137.59003, -5.79224, -7.53784, -44.99950, 47.54100, -21.37850,
50937, -1079.00000, 855.00000, 706.00000, -141.61835, 11.66382, -5.88989, -44.99950, 47.54100, -21.37850,
50944, -1178.00000, 928.00000, 716.00000, -143.44940, 26.80054, 0.21362, -44.99950, 47.54100, -21.37850,
50954, -1025.00000, 809.00000, 630.00000, -138.81073, 38.39722, 13.33618, -44.99950, 47.54100, -21.37850,
50960, -856.00000, 670.00000, 566.00000, -132.03583, 33.39233, 26.39771, -44.99950, 47.54100, -21.37850,
50969, -619.00000, 480.00000, 448.00000, -122.94159, 12.09106, 46.53931, -44.99950, 47.54100, -21.37850,
50975, -417.00000, 346.00000, 310.00000, -115.31219, -6.28052, 60.27222, -44.99950, 47.54100, -21.37850,
50984, -86.00000, 350.00000, 105.00000, -92.30194, -38.99536, 92.68188, -44.99950, 47.54100, -21.37850,
50993, 231.00000, 670.00000, 103.00000, -60.74677, -74.09058, 140.10620, -44.99950, 47.54100, -21.37850,
51000, 346.00000, 845.00000, 224.00000, -46.95282, -97.83325, 167.51099, -44.99950, 47.54100, -21.37850,
51008, 396.00000, 978.00000, 388.00000, -57.45087, -109.30786, 180.26733, -44.99950, 47.54100, -21.37850,
51015, 441.00000, 1147.00000, 594.00000, -91.87469, -102.77710, 169.89136, -44.99950, 47.54100, -21.37850,
51022, 409.00000, 1150.00000, 812.00000, -148.39325, -81.65894, 124.66431, -44.99950, 47.54100, -21.37850,
51031, 256.00000, 1202.00000, 1006.00000, -216.20331, -57.42798, 61.79810, -44.99950, 47.54100, -21.37850,
51040, 87.00000, 1454.00000, 1119.00000, -285.17303, -36.55396, 19.25659, -44.99950, 47.54100, -21.37850,
51046, 73.00000, 1492.00000, 1143.00000, -321.79413, -25.87280, 6.13403, -44.99950, 47.54100, -21.37850,
51055, 269.00000, 1380.00000, 1125.00000, -347.12372, -25.20142, 16.02173, -44.99950, 47.54100, -21.37850,
51064, 664.00000, 1236.00000, 1139.00000, -332.84149, -49.92065, 52.33765, -44.99950, 47.54100, -21.37850,
51071, 818.00000, 1123.00000, 1293.00000, -303.48358, -86.05347, 80.84106, -44.99950, 47.54100, -21.37850,
51079, 814.00000, 944.00000, 1530.00000, -280.47333, -127.31322, 98.35815, -44.99950, 47.54100, -21.37850,
51086, 714.00000, 786.00000, 1735.00000, -282.24335, -152.09351, 94.87915, -54.41800, 42.00950, 7.92350,
51093, 484.00000, 520.00000, 2002.00000, -299.88251, -163.62915, 64.48364, -54.41800, 42.00950, 7.92350,
51102, 127.00000, 57.00000, 2386.00000, -300.12665, -162.71362, 15.59448, -54.41800, 42.00950, 7.92350,
51111, -44.00000, -234.00000, 2736.00000, -265.76385, -148.37036, -17.36450, -54.41800, 42.00950, 7.92350,
51117, -22.00000, -222.00000, 2864.00000, -228.04413, -131.03638, -27.43530, -54.41800, 42.00950, 7.92350,
51126, 59.00000, -74.00000, 2901.00000, -174.94354, -98.68774, -23.65112, -54.41800, 42.00950, 7.92350,
51132, 104.00000, 72.00000, 2831.00000, -144.24286, -78.42407, -14.31274, -58.00600, 35.28200, 13.60450,
51143, 41.00000, 591.00000, 3022.00000, -88.88397, -46.56372, -15.16724, -58.00600, 35.28200, 13.60450,
51150, 153.00000, 3924.00000, 4436.00000, 215.07111, -414.23950, -40.86304, -58.00600, 35.28200, 13.60450,
51175, 1061.00000, 3078.00000, 4996.00000, 28.79181, -397.69897, 103.48511, -58.00600, 35.28200, 13.60450,
51183, 958.00000, 2168.00000, 4566.00000, -177.50702, -248.65112, 222.13745, -63.23850, 39.16900, 9.11950,
51190, 466.00000, 1260.00000, 4431.00000, -300.61493, -113.21411, 249.60327, -63.23850, 39.16900, 9.11950,
51200, -273.00000, -196.00000, 4019.00000, -433.48846, 24.78638, 129.73022, -63.23850, 39.16900, 9.11950,
51207, 87.00000, -443.00000, 3084.00000, -500.99338, 98.33374, 18.28003, -63.23850, 39.16900, 9.11950,
51215, 665.00000, -876.00000, 2165.00000, -569.04755, 175.78735, -102.69165, -63.23850, 39.16900, 9.11950,
51221, 1050.00000, -1069.00000, 1440.00000, -599.99237, 216.43677, -144.01245, -63.23850, 39.16900, 9.11950,
51230, 1217.00000, -891.00000, 685.00000, -612.62665, 250.73853, -144.98901, -59.35150, 23.47150, 27.20900,
51239, 338.00000, -876.00000, 361.00000, -541.88690, 186.83472, -48.00415, -59.35150, 23.47150, 27.20900,
51246, -13.00000, -784.00000, 429.00000, -422.86835, 80.57251, 16.38794, -59.35150, 23.47150, 27.20900,
51254, -210.00000, -605.00000, 588.00000, -259.66034, -23.85864, 61.24878, -59.35150, 23.47150, 27.20900,
51261, -381.00000, -361.00000, 852.00000, -126.05437, -83.12378, 74.55444, -59.35150, 23.47150, 27.20900,
51277, 88.00000, -278.00000, 1502.00000, 57.11212, -100.57983, 30.30396, -59.35150, 23.47150, 27.20900,
51286, 642.00000, -258.00000, 1717.00000, 81.28204, -49.43237, -17.48657, -65.03250, 15.99650, 29.45150,
51293, 1108.00000, -163.00000, 1774.00000, 73.46954, -9.69849, -51.54419, -65.03250, 15.99650, 29.45150,
51302, 1772.00000, 97.00000, 1651.00000, 42.46368, 26.61743, -76.69067, -65.03250, 15.99650, 29.45150,
51309, 2198.00000, 298.00000, 1398.00000, 12.31232, 48.40698, -76.32446, -65.03250, 15.99650, 29.45150,
51321, 2389.00000, 373.00000, 868.00000, -13.07831, 77.88696, -57.64771, -65.03250, 15.99650, 29.45150,
51328, 2232.00000, 264.00000, 588.00000, -18.93768, 90.52124, -41.41235, -65.03250, 15.99650, 29.45150,
51335, 1964.00000, 32.00000, 455.00000, -10.20966, 85.69946, -35.00366, -61.89300, 16.44500, 28.70400,
51342, 1667.00000, -303.00000, 485.00000, 12.06818, 66.83960, -37.68921, -61.89300, 16.44500, 28.70400,
51350, 1457.00000, -546.00000, 639.00000, 35.87189, 46.88110, -41.10718, -61.89300, 16.44500, 28.70400,
51360, 1223.00000, -634.00000, 1013.00000, 60.40802, 24.78638, -30.73120, -61.89300, 16.44500, 28.70400,
51366, 1127.00000, -602.00000, 1223.00000, 64.13116, 20.20874, -21.63696, -61.89300, 16.44500, 28.70400,
51374, 972.00000, -539.00000, 1514.00000, 52.22931, 23.68774, -6.98853, -61.89300, 16.44500, 28.70400,
51380, 864.00000, -535.00000, 1722.00000, 35.81085, 33.27026, -2.96021, -60.24850, 18.83700, 26.31200,
51388, 762.00000, -547.00000, 1934.00000, 7.42950, 53.59497, -2.77710, -60.24850, 18.83700, 26.31200,
51397, 777.00000, -572.00000, 2105.00000, -35.17303, 71.23413, -3.50952, -60.24850, 18.83700, 26.31200,
51404, 786.00000, -1205.00000, 2694.00000, -144.48700, -12.81128, 3.44849, -60.24850, 18.83700, 26.31200,
51431, 880.00000, -1248.00000, 2866.00000, -159.56268, -57.06177, 7.53784, -56.21200, 15.39850, 26.31200,
51438, 1046.00000, -1180.00000, 3201.00000, -177.50702, -106.31714, 15.59448, -56.21200, 15.39850, 26.31200,
51445, 1173.00000, -1028.00000, 3581.00000, -191.91132, -142.57202, 21.88110, -56.21200, 15.39850, 26.31200,
51454, 1249.00000, -755.00000, 4165.00000, -201.79901, -170.09888, 22.55249, -56.21200, 15.39850, 26.31200,
51463, 1219.00000, -493.00000, 4794.00000, -198.19794, -173.21167, 13.03101, -56.21200, 15.39850, 26.31200,
51469, 1117.00000, -348.00000, 5305.00000, -185.31952, -163.99536, -0.15259, -56.21200, 15.39850, 26.31200,
51477, 903.00000, -71.00000, 6064.00000, -140.03143, -131.89087, -25.11597, -56.21200, 15.39850, 26.31200,
51483, 650.00000, 242.00000, 6518.00000, -98.64960, -95.08667, -32.74536, -56.21200, 15.39850, 26.31200,
51493, 25.00000, 947.00000, 7086.00000, -10.94208, 14.77661, -35.12573, -56.21200, 15.39850, 26.31200,
51500, -795.00000, 1553.00000, 7448.00000, 40.08331, 100.10376, -39.45923, -56.21200, 15.39850, 26.31200,
51507, -1896.00000, 2308.00000, 7762.00000, 85.98175, 175.97046, -39.52026, -56.21200, 15.39850, 26.31200,
51515, -3182.00000, 3015.00000, 7933.00000, 108.74786, 201.84937, -37.50610, -56.21200, 15.39850, 26.31200,
51524, -4347.00000, 3527.00000, 8219.00000, 111.86066, 170.66040, -35.24780, -56.21200, 15.39850, 26.31200,
51532, -4338.00000, 3365.00000, 8815.00000, 122.60284, 126.04371, -28.71704, -56.21200, 15.39850, 26.31200,
51538, -4087.00000, 3030.00000, 9274.00000, 148.60382, 122.50366, -15.22827, -56.21200, 15.39850, 26.31200,
51546, -3816.00000, 2594.00000, 9737.00000, 209.33380, 143.07251, 11.26099, -56.21200, 15.39850, 26.31200,
51552, -3650.00000, 2413.00000, 9915.00000, 250.34943, 160.10132, 24.87183, -56.21200, 15.39850, 26.31200,
51563, -3289.00000, 2100.00000, 10208.00000, 320.11261, 194.70825, 45.62378, -56.21200, 15.39850, 26.31200,
51570, -2951.00000, 1731.00000, 10469.00000, 360.94513, 222.96753, 62.46948, -56.21200, 15.39850, 26.31200,
51577, -2752.00000, 1426.00000, 10627.00000, 393.47687, 247.19849, 76.44653, -56.21200, 15.39850, 26.31200,
51584, -2678.00000, 1093.00000, 10737.00000, 420.69855, 266.66870, 86.76147, -56.21200, 15.39850, 26.31200,
51592, -2637.00000, 681.00000, 10975.00000, 450.60577, 279.91333, 92.43774, -56.21200, 15.39850, 26.31200,
51602, -2454.00000, 276.00000, 11422.00000, 493.94073, 291.57104, 87.55493, -56.21200, 15.39850, 26.31200,
51607, -2284.00000, 99.00000, 11680.00000, 523.72589, 309.94263, 77.66724, -56.21200, 15.39850, 26.31200,
51616, -2193.00000, -200.00000, 11764.00000, 556.68488, 360.17456, 63.20190, -56.21200, 15.39850, 26.31200,
51622, -2252.00000, -500.00000, 11606.00000, 564.00909, 396.12427, 60.08911, -56.21200, 15.39850, 26.31200,
51632, -2401.00000, -1022.00000, 11053.00000, 536.29913, 416.08276, 61.12671, -48.73700, 38.42150, 4.18600,
51639, -2344.00000, -1413.00000, 10351.00000, 460.85968, 393.37769, 70.03784, -48.73700, 38.42150, 4.18600,
51647, -2121.00000, -1664.00000, 9341.00000, 351.36261, 347.60132, 74.61548, -48.73700, 38.42150, 4.18600,
51654, -284.00000, -1414.00000, 3149.00000, -123.49091, 15.75317, -355.13306, -41.71050, 39.01950, -0.14950,
51682, -35.00000, -912.00000, 1868.00000, -210.09979, -58.70972, -480.62134, -41.71050, 39.01950, -0.14950,
51693, 89.00000, -439.00000, 766.00000, -281.02264, -129.44946, -582.55005, -41.71050, 39.01950, -0.14950,
51698, 127.00000, -290.00000, 421.00000, -302.26288, -155.99976, -612.94556, -41.71050, 39.01950, -0.14950,
51707, 161.00000, -157.00000, 132.00000, -318.92548, -183.83179, -636.87134, -41.71050, 39.01950, -0.14950,
51713, 172.00000, -110.00000, 28.00000, -324.11346, -197.07642, -644.56177, -41.71050, 39.01950, -0.14950,
51721, 183.00000, -54.00000, -76.00000, -328.32489, -215.75317, -651.27563, -41.71050, 39.01950, -0.14950,
51730, 188.00000, -16.00000, -131.00000, -329.30145, -232.17163, -653.83911, -30.19900, 23.32200, 13.60450,
51737, 183.00000, 7.00000, -157.00000, -328.56903, -245.78247, -654.20532, -30.19900, 23.32200, 13.60450,
51745, 181.00000, 19.00000, -169.00000, -327.16522, -257.37915, -653.71704, -30.19900, 23.32200, 13.60450,
51752, 178.00000, 27.00000, -180.00000, -325.09003, -268.48755, -652.92358, -30.19900, 23.32200, 13.60450,
51759, 174.00000, 34.00000, -187.00000, -322.28241, -280.69458, -651.58081, -30.19900, 23.32200, 13.60450,
51768, 178.00000, 36.00000, -187.00000, -318.68134, -293.93921, -649.99390, -30.19900, 23.32200, 13.60450,
51776, 179.00000, 42.00000, -183.00000, -314.95819, -305.35278, -648.40698, -33.48800, -1.94350, 21.07950,
51782, 175.00000, 44.00000, -180.00000, -311.96747, -313.95874, -647.12524, -33.48800, -1.94350, 21.07950,
51791, 173.00000, 43.00000, -180.00000, -307.45087, -325.73853, -645.05005, -33.48800, -1.94350, 21.07950,
51800, 174.00000, 48.00000, -175.00000, -302.69012, -337.15210, -642.79175, -33.48800, -1.94350, 21.07950,
51807, 171.00000, 49.00000, -170.00000, -298.66180, -346.00220, -640.83862, -33.48800, -1.94350, 21.07950,
51814, 169.00000, 53.00000, -169.00000, -293.96210, -355.64575, -638.51929, -33.48800, -1.94350, 21.07950,
51821, 167.00000, 53.00000, -163.00000, -289.56757, -363.94653, -636.44409, -33.48800, -1.94350, 21.07950,
51828, 165.00000, 55.00000, -162.00000, -285.05096, -372.12524, -634.30786, -53.22200, -18.68750, 21.97650,
51837, 158.00000, 54.00000, -159.00000, -279.25262, -382.07397, -631.62231, -53.22200, -18.68750, 21.97650,
51846, 156.00000, 55.00000, -157.00000, -273.14911, -391.65649, -628.81470, -53.22200, -18.68750, 21.97650,
51852, 153.00000, 55.00000, -156.00000, -268.87665, -398.30933, -626.86157, -53.22200, -18.68750, 21.97650,
51860, 148.00000, 54.00000, -152.00000, -262.59003, -407.58667, -624.05396, -53.22200, -18.68750, 21.97650,
51866, 146.00000, 52.00000, -150.00000, -258.13446, -413.99536, -621.97876, -53.22200, -18.68750, 21.97650,
51876, 142.00000, 50.00000, -145.00000, -250.93231, -423.94409, -618.74390, -78.33800, -22.57450, 13.30550,
51883, 141.00000, 49.00000, -142.00000, -245.50018, -431.02417, -616.48560, -78.33800, -22.57450, 13.30550,
51890, 142.00000, 46.00000, -139.00000, -239.94598, -438.10425, -614.16626, -78.33800, -22.57450, 13.30550,
51897, 141.00000, 43.00000, -132.00000, -234.26971, -445.00122, -611.72485, -78.33800, -22.57450, 13.30550,
51905, 145.00000, 40.00000, -129.00000, -212.35809, -468.86597, -602.81372, -94.03550, -10.76400, -4.93350,
51927, 147.00000, 39.00000, -126.00000, -207.59735, -473.56567, -600.86060, -94.03550, -10.76400, -4.93350,
51933, 147.00000, 38.00000, -124.00000, -201.92108, -478.93677, -598.54126, -94.03550, -10.76400, -4.93350,
51961, 152.00000, 40.00000, -121.00000, -175.18768, -501.58084, -587.67700, -94.03550, -10.76400, -4.93350,
51966, 154.00000, 38.00000, -120.00000, -169.93866, -505.54813, -585.72388, -94.03550, -10.76400, -4.93350,
51982, 153.00000, 41.00000, -119.00000, -153.03192, -517.20581, -579.43726, -95.82950, 8.52150, -24.81700,
51990, 154.00000, 42.00000, -121.00000, -145.82977, -521.90552, -576.81274, -95.82950, 8.52150, -24.81700,
52022, 151.00000, 49.00000, -120.00000, -110.36835, -542.16919, -565.33813, -95.82950, 8.52150, -24.81700,
52029, 154.00000, 52.00000, -117.00000, -102.73895, -545.95337, -563.07983, -95.82950, 8.52150, -24.81700,
52060, 153.00000, 64.00000, -121.00000, -67.88788, -561.15112, -553.00903, -95.82950, 8.52150, -24.81700,
52075, 151.00000, 69.00000, -116.00000, -51.22528, -567.43774, -548.49243, -95.82950, 8.52150, -24.81700,
52105, 146.00000, 74.00000, -116.00000, -17.22870, -577.50854, -539.39819, -95.82950, 8.52150, -24.81700,
52134, 137.00000, 76.00000, -113.00000, 17.43927, -585.01587, -530.97534, -27.50800, 27.95650, -35.13250,
52145, 134.00000, 79.00000, -115.00000, 29.82941, -587.03003, -528.16772, -27.50800, 27.95650, -35.13250,
52174, 112.00000, 84.00000, -107.00000, 117.90314, -591.60767, -510.28442, -18.23900, -3.13950, 2.54150,
52229, 113.00000, 88.00000, -104.00000, 131.69708, -590.69214, -507.78198, -18.23900, -3.13950, 2.54150,
52260, 104.00000, 90.00000, -101.00000, 170.14923, -585.68726, -501.25122, -18.23900, -3.13950, 2.54150,
52268, 102.00000, 90.00000, -100.00000, 178.69415, -584.10034, -499.90845, -38.72050, -10.01650, 21.52800,
52300, 93.00000, 94.00000, -97.00000, 218.85529, -574.27368, -493.92700, -38.72050, -10.01650, 21.52800,
52307, 93.00000, 95.00000, -96.00000, 227.21710, -571.71021, -492.76733, -38.72050, -10.01650, 21.52800,
52341, 86.00000, 100.00000, -88.00000, 268.41583, -555.90210, -487.57935, -62.19200, -4.78400, 25.86350,
52371, 82.00000, 106.00000, -88.00000, 301.86310, -539.05640, -483.73413, -79.83300, 10.16600, 17.79050,
52380, 81.00000, 111.00000, -88.00000, 311.38458, -533.44116, -482.75757, -79.83300, 10.16600, 17.79050,
52410, 68.00000, 113.00000, -95.00000, 342.75665, -513.11646, -479.70581, -79.83300, 10.16600, 17.79050,
52421, 61.00000, 116.00000, -96.00000, 355.26886, -504.20535, -478.85132, -87.30800, 28.85350, 2.54150,
52454, 12.00000, 111.00000, -110.00000, 430.70831, -445.30640, -478.05786, -75.94600, 42.15900, -21.52800,
52505, 7.00000, 111.00000, -112.00000, 437.17804, -439.38599, -478.11890, -75.94600, 42.15900, -21.52800,
52537, -18.00000, 99.00000, -115.00000, 465.92560, -410.02808, -477.93579, -51.72700, 37.67400, -40.36500,
52544, -24.00000, 93.00000, -116.00000, 471.72394, -403.31421, -477.81372, -51.72700, 37.67400, -40.36500,
52577, -52.00000, 65.00000, -107.00000, 498.57941, -370.41626, -476.65405, -51.72700, 37.67400, -40.36500,
52607, -65.00000, 42.00000, -91.00000, 521.58966, -339.83765, -473.66333, -51.72700, 37.67400, -40.36500,
52617, -67.00000, 33.00000, -83.00000, 529.40216, -328.72925, -472.01538, -51.72700, 37.67400, -40.36500,
52652, -57.00000, 10.00000, -63.00000, 554.97589, -289.54468, -467.01050, -51.72700, 37.67400, -40.36500,
52662, -44.00000, 6.00000, -60.00000, 562.48322, -276.91040, -466.21704, -27.05950, -23.92000, -21.52800,
52672, -40.00000, 4.00000, -59.00000, 569.07501, -264.94751, -465.78979, -27.05950, -23.92000, -21.52800,
52679, -41.00000, 4.00000, -66.00000, 573.89679, -254.87671, -465.24048, -27.05950, -23.92000, -21.52800,
52686, -41.00000, 7.00000, -70.00000, 577.68097, -245.84351, -464.63013, -27.05950, -23.92000, -21.52800,
52694, -41.00000, 11.00000, -67.00000, 581.64825, -235.46753, -464.20288, -27.05950, -23.92000, -21.52800,
52725, -912.00000, 2271.00000, 2472.00000, 1085.61548, 225.71411, 681.42700, -35.43150, -34.38500, -0.59800,
52759, 1526.00000, 4934.00000, 557.00000, 734.35822, 166.51001, 708.22144, -35.43150, -34.38500, -0.59800,
52766, 2475.00000, 4287.00000, -79.00000, 539.65607, 173.71216, 611.11450, -26.01300, 9.26900, 10.91350,
52798, 2792.00000, 1804.00000, 1782.00000, -102.55585, 353.27759, 325.22583, -26.01300, 9.26900, 10.91350,
52805, 2193.00000, 1460.00000, 2251.00000, -77.83661, 328.55835, 280.18188, -26.01300, 9.26900, 10.91350,
52814, 1258.00000, 1049.00000, 2367.00000, -52.07977, 236.27319, 293.12134, -21.82700, 18.83700, 5.83050,
52823, 713.00000, 856.00000, 2299.00000, -49.57733, 112.55493, 323.63892, -21.82700, 18.83700, 5.83050,
52829, 625.00000, 734.00000, 2282.00000, -50.49286, 16.85181, 325.46997, -21.82700, 18.83700, 5.83050,
52837, 762.00000, 684.00000, 2236.00000, -43.35175, -105.34058, 305.87769, -21.82700, 18.83700, 5.83050,
52844, 990.00000, 806.00000, 2183.00000, -33.46405, -170.03784, 287.38403, -21.82700, 18.83700, 5.83050,
52854, 1476.00000, 1226.00000, 2269.00000, -15.51971, -235.83374, 266.99829, -21.82700, 18.83700, 5.83050,
52861, 1788.00000, 1560.00000, 2477.00000, -7.46307, -255.30396, 263.09204, -30.49800, 25.86350, 8.67100,
52868, 2063.00000, 1921.00000, 2788.00000, -4.04510, -263.05542, 268.58521, -30.49800, 25.86350, 8.67100,
52876, 2170.00000, 2207.00000, 3043.00000, -4.10614, -262.20093, 280.30396, -30.49800, 25.86350, 8.67100,
52883, 2113.00000, 2398.00000, 3274.00000, -11.85760, -264.03198, 290.67993, -30.49800, 25.86350, 8.67100,
52896, 1962.00000, 2550.00000, 3561.00000, -27.78778, -286.67603, 300.87280, -30.49800, 25.86350, 8.67100,
52902, 1989.00000, 2591.00000, 3705.00000, -31.44989, -296.99097, 300.99487, -30.49800, 25.86350, 8.67100,
52910, 2101.00000, 2637.00000, 3938.00000, -24.98016, -306.39038, 298.67554, -42.15900, 31.54450, 14.95000,
52916, 2174.00000, 2721.00000, 4146.00000, -14.36005, -308.89282, 296.17310, -42.15900, 31.54450, 14.95000,
52925, 2246.00000, 2908.00000, 4458.00000, 7.36847, -307.55005, 293.06030, -42.15900, 31.54450, 14.95000,
52934, 2209.00000, 3193.00000, 4704.00000, 44.53888, -297.96753, 284.27124, -42.15900, 31.54450, 14.95000,
52941, 2109.00000, 3461.00000, 4792.00000, 72.61505, -284.41772, 272.24731, -42.15900, 31.54450, 14.95000,
52948, 1907.00000, 3778.00000, 4789.00000, 96.90704, -262.87231, 255.64575, -42.15900, 31.54450, 14.95000,
52956, 1683.00000, 4051.00000, 4711.00000, 107.71027, -240.35034, 238.55591, -42.15900, 31.54450, 14.95000,
52963, 1396.00000, 4264.00000, 4613.00000, 102.82745, -213.31177, 220.42847, -53.52100, 33.63750, 13.45500,
52997, 368.00000, 4243.00000, 4021.00000, -30.41229, -47.11304, 114.41040, -61.14550, 30.64750, 16.29550,
53055, 243.00000, 4465.00000, 3920.00000, -20.95184, -38.01880, 100.61646, -61.14550, 30.64750, 16.29550,
53061, 180.00000, 4584.00000, 3861.00000, -21.07391, -30.87769, 89.20288, -61.14550, 30.64750, 16.29550,
53091, 157.00000, 4410.00000, 4048.00000, -61.78436, 18.19458, 3.14331, -61.14550, 30.64750, 16.29550,
53102, 208.00000, 4136.00000, 4346.00000, -65.20233, 40.96069, -17.97485, -61.14550, 30.64750, 16.29550,
53109, 248.00000, 4001.00000, 4610.00000, -56.65741, 54.02222, -27.00806, -61.14550, 30.64750, 16.29550,
53117, 289.00000, 3919.00000, 4923.00000, -37.18719, 68.79272, -36.40747, -61.14550, 30.64750, 16.29550,
53124, 318.00000, 3938.00000, 5176.00000, -13.20038, 84.78394, -45.86792, -61.14550, 30.64750, 16.29550,
53131, 381.00000, 4047.00000, 5458.00000, 14.69269, 109.07593, -56.12183, -61.14550, 30.64750, 16.29550,
53140, 513.00000, 4250.00000, 5754.00000, 40.99884, 139.10522, -69.24438, -61.14550, 30.64750, 16.29550,
53149, 715.00000, 4520.00000, 6017.00000, 60.65216, 170.90454, -89.69116, -61.14550, 30.64750, 16.29550,
53155, 870.00000, 4737.00000, 6190.00000, 70.29572, 195.44067, -110.50415, -61.14550, 30.64750, 16.29550,
53163, 1046.00000, 5069.00000, 6399.00000, 73.95782, 230.29175, -142.24243, -58.75350, 31.84350, 15.69750,
53170, 1141.00000, 5225.00000, 6495.00000, 68.83087, 251.65405, -162.50610, -58.75350, 31.84350, 15.69750,
53180, 1321.00000, 5312.00000, 6642.00000, 59.24835, 277.28882, -190.46021, -58.75350, 31.84350, 15.69750,
53187, 1569.00000, 5342.00000, 6774.00000, 59.98077, 293.70728, -216.52222, -58.75350, 31.84350, 15.69750,
53219, 2832.00000, 5895.00000, 8273.00000, 76.15509, 371.95435, -338.04321, -42.60750, 32.14250, 12.70750,
53226, 3045.00000, 6108.00000, 8785.00000, 66.26740, 398.87085, -366.18042, -42.60750, 32.14250, 12.70750,
53234, 3301.00000, 6262.00000, 9318.00000, 47.46857, 426.94702, -393.21899, -42.60750, 32.14250, 12.70750,
53246, 3870.00000, 6221.00000, 9836.00000, 18.11066, 476.26343, -424.83521, -42.60750, 32.14250, 12.70750,
53253, 4934.00000, 5438.00000, 9359.00000, -41.58173, 558.11157, -433.68530, -29.00300, 28.10600, 3.28900,
53281, 4961.00000, 5158.00000, 8659.00000, -68.25409, 526.92261, -380.76782, -29.00300, 28.10600, 3.28900,
53287, 4787.00000, 4804.00000, 8061.00000, -80.40009, 475.28687, -355.49927, -29.00300, 28.10600, 3.28900,
53298, 4157.00000, 3518.00000, 6432.00000, -78.26385, 307.31812, -388.76343, -29.00300, 28.10600, 3.28900,
53305, 3624.00000, 2576.00000, 4666.00000, -59.34296, 115.60669, -425.56763, -17.19250, 16.14600, -4.78400,
53312, 3066.00000, 2034.00000, 3056.00000, -38.83514, -95.33081, -457.67212, -17.19250, 16.14600, -4.78400,
53320, 2003.00000, 1317.00000, 1700.00000, -13.01727, -306.57349, -493.01147, -17.19250, 16.14600, -4.78400,
53327, 1269.00000, 803.00000, 931.00000, 4.31671, -421.80786, -511.13892, -17.19250, 16.14600, -4.78400,
53338, 669.00000, 399.00000, 315.00000, 24.21417, -515.86304, -523.22388, -17.19250, 16.14600, -4.78400,
53344, 477.00000, 274.00000, 119.00000, 33.91876, -546.56372, -525.78735, -17.19250, 16.14600, -4.78400,
53352, 312.00000, 172.00000, -49.00000, 46.43097, -574.02954, -526.33667, -17.19250, 16.14600, -4.78400,
53358, 244.00000, 132.00000, -113.00000, 54.54865, -586.17554, -525.72632, -26.31200, -2.99000, 12.70750,
53367, 184.00000, 104.00000, -167.00000, 65.65704, -598.01636, -523.83423, -26.31200, -2.99000, 12.70750,
53376, 150.00000, 87.00000, -193.00000, 77.61993, -606.31714, -521.20972, -26.31200, -2.99000, 12.70750,
53384, 137.00000, 82.00000, -203.00000, 86.22589, -610.52856, -519.07349, -26.31200, -2.99000, 12.70750,
53391, 128.00000, 78.00000, -210.00000, 95.86945, -614.12964, -516.63208, -26.31200, -2.99000, 12.70750,
53398, 118.00000, 77.00000, -211.00000, 104.35333, -616.38794, -514.37378, -26.31200, -2.99000, 12.70750,
53406, 112.00000, 77.00000, -207.00000, 113.87482, -618.21899, -511.74927, -46.94300, -8.52150, 25.86350,
53415, 104.00000, 74.00000, -200.00000, 124.55597, -619.50073, -508.94165, -46.94300, -8.52150, 25.86350,
53424, 98.00000, 74.00000, -195.00000, 135.29816, -619.98901, -506.19507, -46.94300, -8.52150, 25.86350,
53430, 97.00000, 72.00000, -194.00000, 142.98859, -620.05005, -504.30298, -46.94300, -8.52150, 25.86350,
53438, 94.00000, 74.00000, -191.00000, 153.97491, -619.68384, -501.80054, -46.94300, -8.52150, 25.86350,
53444, 92.00000, 74.00000, -188.00000, 161.72638, -619.07349, -500.15259, -46.94300, -8.52150, 25.86350,
53455, 84.00000, 75.00000, -184.00000, 175.21515, -617.73071, -497.46704, -72.50750, 0.14950, 23.92000,
53462, 78.00000, 76.00000, -176.00000, 185.34698, -616.32690, -495.63599, -72.50750, 0.14950, 23.92000,
53470, 74.00000, 73.00000, -172.00000, 194.44122, -614.80103, -494.04907, -72.50750, 0.14950, 23.92000,
53477, 70.00000, 72.00000, -167.00000, 204.63409, -612.84790, -492.27905, -72.50750, 0.14950, 23.92000,
53486, 69.00000, 71.00000, -160.00000, 215.86456, -610.28442, -490.32593, -72.50750, 0.14950, 23.92000,
53495, 70.00000, 71.00000, -152.00000, 227.09503, -607.41577, -488.43384, -72.50750, 0.14950, 23.92000,
53501, 67.00000, 71.00000, -146.00000, 234.90753, -605.21851, -487.33521, -72.50750, 0.14950, 23.92000,
53509, 71.00000, 68.00000, -126.00000, 272.01691, -592.64526, -482.39136, -86.85950, 17.94000, 10.16600,
53536, 72.00000, 68.00000, -123.00000, 279.89044, -589.53247, -481.53687, -86.85950, 17.94000, 10.16600,
53546, 69.00000, 71.00000, -118.00000, 293.13507, -583.85620, -480.13306, -86.85950, 17.94000, 10.16600,
53553, 68.00000, 73.00000, -114.00000, 303.02277, -579.27856, -479.09546, -87.30800, 31.09600, -13.30550,
53561, 66.00000, 75.00000, -110.00000, 311.75079, -575.12817, -478.30200, -87.30800, 31.09600, -13.30550,
53568, 68.00000, 75.00000, -110.00000, 321.51642, -570.18433, -477.38647, -87.30800, 31.09600, -13.30550,
53575, 64.00000, 74.00000, -110.00000, 330.06134, -565.54565, -476.71509, -87.30800, 31.09600, -13.30550,
53586, 63.00000, 79.00000, -110.00000, 342.87872, -558.40454, -475.61646, -87.30800, 31.09600, -13.30550,
53592, 61.00000, 78.00000, -109.00000, 350.32501, -554.01001, -474.94507, -87.30800, 31.09600, -13.30550,
53601, 59.00000, 76.00000, -108.00000, 360.82306, -547.47925, -474.09058, -87.30800, 31.09600, -13.30550,
53607, 55.00000, 77.00000, -105.00000, 368.14728, -542.71851, -473.41919, -87.30800, 31.09600, -13.30550,
53615, 56.00000, 81.00000, -103.00000, 378.52325, -535.63843, -472.50366, -87.30800, 31.09600, -13.30550,
53624, 57.00000, 81.00000, -103.00000, 389.81476, -527.45972, -471.58813, -87.30800, 31.09600, -13.30550,
53632, 55.00000, 82.00000, -102.00000, 397.87140, -521.23413, -470.97778, -87.30800, 31.09600, -13.30550,
53639, 50.00000, 83.00000, -103.00000, 406.78253, -514.09302, -470.24536, -87.30800, 31.09600, -13.30550,
53647, 47.00000, 83.00000, -101.00000, 414.59503, -507.50125, -469.75708, -87.30800, 31.09600, -13.30550,
53654, 44.00000, 87.00000, -100.00000, 423.20099, -499.93286, -469.20776, -87.30800, 31.09600, -13.30550,
53663, 39.00000, 88.00000, -99.00000, 432.66144, -491.26587, -468.71948, -87.30800, 31.09600, -13.30550,
53672, 37.00000, 90.00000, -97.00000, 441.75568, -482.53784, -468.29224, -87.30800, 31.09600, -13.30550,
53678, 32.00000, 90.00000, -97.00000, 448.04230, -476.25122, -468.04810, -87.30800, 31.09600, -13.30550,
53687, 27.00000, 88.00000, -99.00000, 456.77032, -467.09595, -467.80396, -87.30800, 31.09600, -13.30550,
53696, 25.00000, 87.00000, -96.00000, 466.16974, -456.84204, -467.68188, -87.30800, 31.09600, -13.30550,
53703, 21.00000, 88.00000, -95.00000, 472.76154, -449.27368, -467.49878, -27.05950, 9.71750, -43.95300,
53711, 17.00000, 89.00000, -95.00000, 480.08575, -440.72876, -467.49878, -27.05950, 9.71750, -43.95300,
53718, 14.00000, 88.00000, -96.00000, 486.37238, -432.97729, -467.55981, -27.05950, 9.71750, -43.95300,
53725, 10.00000, 89.00000, -99.00000, 493.45245, -424.24927, -467.55981, -27.05950, 9.71750, -43.95300,
53734, 7.00000, 86.00000, -98.00000, 501.02078, -414.48364, -467.86499, -27.05950, 9.71750, -43.95300,
53743, 3.00000, 84.00000, -96.00000, 508.40604, -404.53491, -468.04810, -27.05950, 9.71750, -43.95300,
53749, 1.00000, 82.00000, -95.00000, 513.41095, -397.57690, -468.29224, -21.22900, -11.21250, -29.75050,
53758, -2.00000, 81.00000, -92.00000, 520.49103, -387.44507, -468.59741, -21.22900, -11.21250, -29.75050,
53764, -10.00000, 75.00000, -90.00000, 539.90021, -357.53784, -469.75708, -21.22900, -11.21250, -29.75050,
53793, -14.00000, 73.00000, -89.00000, 547.52960, -344.84253, -470.36743, -21.22900, -11.21250, -29.75050,
53800, -15.00000, 71.00000, -88.00000, 552.35138, -336.17554, -470.73364, -32.29200, -26.31200, -8.22250,
53808, -16.00000, 68.00000, -85.00000, 557.66144, -326.40991, -471.28296, -32.29200, -26.31200, -8.22250,
53815, -20.00000, 66.00000, -84.00000, 562.11700, -317.62085, -471.64917, -32.29200, -26.31200, -8.22250,
53822, -24.00000, 63.00000, -85.00000, 567.12189, -307.67212, -472.19849, -32.29200, -26.31200, -8.22250,
53833, -26.00000, 61.00000, -84.00000, 573.53058, -294.12231, -472.99194, -32.29200, -26.31200, -8.22250,
53839, -27.00000, 60.00000, -82.00000, 577.07062, -286.18774, -473.41919, -32.29200, -26.31200, -8.22250,
53847, -31.00000, 55.00000, -80.00000, 581.46515, -275.87280, -474.15161, -48.13900, -25.41500, -8.22250,
53853, -33.00000, 54.00000, -77.00000, 584.76105, -267.75513, -474.57886, -48.13900, -25.41500, 12.40850,
53862, -34.00000, 51.00000, -71.00000, 589.27765, -256.09741, -475.31128, -48.13900, -25.41500, 12.40850,
53871, -37.00000, 46.00000, -71.00000, 593.91632, -243.21899, -476.16577, -48.13900, -25.41500, 12.40850,
53879, -38.00000, 43.00000, -71.00000, 597.27325, -233.63647, -476.77612, -48.13900, -25.41500, 12.40850,
53886, -36.00000, 41.00000, -71.00000, 600.69122, -222.83325, -477.50854, -48.13900, -25.41500, 12.40850,
53893, -36.00000, 38.00000, -72.00000, 603.55988, -213.25073, -478.11890, -48.13900, -25.41500, 12.40850,
53901, -36.00000, 34.00000, -69.00000, 606.55060, -202.20337, -478.91235, -61.59400, -8.37200, 22.87350,
53910, -37.00000, 29.00000, -68.00000, 609.66339, -189.87427, -479.76685, -61.59400, -8.37200, 22.87350,
53918, -41.00000, 27.00000, -67.00000, 612.59308, -177.48413, -480.68237, -61.59400, -8.37200, 22.87350,
53925, -43.00000, 25.00000, -67.00000, 614.36310, -168.75610, -481.29272, -61.59400, -8.37200, 22.87350,
53933, -45.00000, 22.00000, -68.00000, 616.98761, -155.08423, -482.33032, -61.59400, -8.37200, 22.87350,
53942, -44.00000, 18.00000, -68.00000, 618.94073, -142.57202, -483.24585, -61.59400, -8.37200, 22.87350,
53950, -47.00000, 14.00000, -63.00000, 620.40558, -132.50122, -483.97827, -69.06900, 17.19250, 22.27550,
53957, -50.00000, 13.00000, -59.00000, 621.80939, -121.14868, -484.89380, -69.06900, 17.19250, 22.27550,
53965, -51.00000, 13.00000, -61.00000, 622.90802, -111.07788, -485.74829, -69.06900, 17.19250, 22.27550,
53972, -52.00000, 10.00000, -63.00000, 623.88458, -99.78638, -486.72485, -69.06900, 17.19250, 22.27550,
53981, -51.00000, 9.00000, -64.00000, 624.61700, -87.15210, -487.88452, -69.06900, 17.19250, 22.27550,
53990, -51.00000, 7.00000, -63.00000, 625.16632, -73.29712, -489.16626, -69.06900, 17.19250, 22.27550,
53996, -51.00000, 6.00000, -61.00000, 625.34943, -64.56909, -490.02075, -60.24850, 37.07600, 6.87700,
54005, -54.00000, 2.00000, -61.00000, 625.28839, -52.05688, -491.30249, -60.24850, 37.07600, 6.87700,
54011, -54.00000, -2.00000, -60.00000, 625.10529, -43.32886, -492.21802, -60.24850, 37.07600, 6.87700,
54021, -63.00000, -10.00000, -58.00000, 621.07697, 8.42896, -498.07739, -44.70050, 43.50450, -11.51150,
54055, -67.00000, -15.00000, -60.00000, 619.67316, 19.29321, -499.48120, -44.70050, 43.50450, -11.51150,
54062, -67.00000, -15.00000, -61.00000, 618.14728, 28.87573, -500.70190, -44.70050, 43.50450, -11.51150,
54070, -70.00000, -19.00000, -63.00000, 616.31622, 39.49585, -502.04468, -44.70050, 43.50450, -11.51150,
54077, -73.00000, -23.00000, -67.00000, 614.48517, 48.89526, -503.26538, -44.70050, 43.50450, -11.51150,
54088, -74.00000, -29.00000, -66.00000, 611.61652, 62.81128, -505.27954, -44.70050, 43.50450, -11.51150,
54094, -72.00000, -34.00000, -66.00000, 609.72443, 70.80688, -506.43921, -44.70050, 43.50450, -11.51150,
54102, -75.00000, -37.00000, -66.00000, 606.85577, 82.15942, -507.96509, -44.70050, 43.50450, -11.51150,
54108, -75.00000, -42.00000, -64.00000, 604.78058, 90.03296, -509.06372, -44.70050, 43.50450, -11.51150,
54117, -75.00000, -46.00000, -68.00000, 601.54572, 101.14136, -510.40649, -44.70050, 43.50450, -11.51150,
54126, -75.00000, -55.00000, -70.00000, 597.76154, 113.34839, -511.81030, -44.70050, 43.50450, -11.51150,
54134, -72.00000, -64.00000, -73.00000, 594.89288, 122.07642, -512.72583, -44.70050, 43.50450, -11.51150,
54141, -71.00000, -67.00000, -71.00000, 591.53595, 131.78101, -513.70239, -44.70050, 43.50450, -11.51150,
54148, -71.00000, -72.00000, -69.00000, 588.42316, 140.26489, -514.43481, -44.70050, 43.50450, -11.51150,
54156, -72.00000, -79.00000, -70.00000, 584.82208, 149.66431, -515.22827, -44.70050, 43.50450, -11.51150,
54165, -72.00000, -87.00000, -68.00000, 580.67169, 160.04028, -515.96069, -44.70050, 43.50450, -11.51150,
54174, -70.00000, -99.00000, -71.00000, 576.33820, 170.23315, -516.51001, -44.70050, 43.50450, -11.51150,
54180, -71.00000, -102.00000, -72.00000, 573.22540, 177.37427, -516.87622, -44.70050, 43.50450, -11.51150,
54188, -68.00000, -109.00000, -71.00000, 568.76984, 187.38403, -517.18140, -44.70050, 43.50450, -11.51150,
54197, -60.00000, -116.00000, -65.00000, 563.64288, 198.30933, -517.54761, -44.70050, 43.50450, -11.51150,
54205, -55.00000, -120.00000, -65.00000, 559.91974, 206.18286, -517.85278, -44.70050, 43.50450, -11.51150,
54212, -50.00000, -126.00000, -64.00000, 555.52521, 215.09399, -518.40210, -44.70050, 43.50450, -11.51150,
54219, -46.00000, -128.00000, -62.00000, 551.55792, 222.96753, -518.95142, -44.70050, 43.50450, -11.51150,
54227, -41.00000, -134.00000, -62.00000, 547.10236, 231.75659, -519.62280, -44.70050, 43.50450, -11.51150,
54236, -35.00000, -136.00000, -60.00000, 541.91437, 241.58325, -520.59937, -44.70050, 43.50450, -11.51150,
54245, -28.00000, -142.00000, -55.00000, 536.54327, 251.40991, -521.51489, -54.11900, -33.03950, -26.31200,
54251, -23.00000, -146.00000, -51.00000, 532.63702, 258.30688, -522.12524, -54.11900, -33.03950, -26.31200,
54259, -19.00000, -155.00000, -48.00000, 527.20490, 268.07251, -522.97974, -54.11900, -33.03950, -26.31200,
54265, -14.00000, -161.00000, -47.00000, 523.35968, 274.84741, -523.52905, -54.11900, -33.03950, -26.31200,
54276, 14.00000, -175.00000, -23.00000, 503.58426, 310.98022, -526.21460, -72.95600, -37.07600, -8.67100,
54305, 19.00000, -172.00000, -18.00000, 499.49493, 318.54858, -526.94702, -72.95600, -37.07600, -8.67100,
54313, 24.00000, -170.00000, -15.00000, 494.73419, 327.03247, -527.61841, -72.95600, -37.07600, -8.67100,
54320, 29.00000, -168.00000, -13.00000, 490.46173, 334.60083, -528.35083, -72.95600, -37.07600, -8.67100,
54327, 33.00000, -167.00000, -9.00000, 485.94513, 342.23022, -529.08325, -72.95600, -37.07600, -8.67100,
54337, 38.00000, -159.00000, -3.00000, 478.98712, 353.46069, -530.36499, -72.95600, -37.07600, -8.67100,
54343, 38.00000, -155.00000, 5.00000, 474.77570, 360.05249, -531.15845, -81.32800, -17.94000, 10.91350,
54352, 39.00000, -153.00000, 13.00000, 468.61115, 369.32983, -532.37915, -81.32800, -17.94000, 10.91350,
54357, 40.00000, -150.00000, 12.00000, 464.64386, 374.88403, -533.23364, -81.32800, -17.94000, 10.91350,
54368, 43.00000, -145.00000, 10.00000, 456.28204, 385.56519, -534.82056, -81.32800, -17.94000, 10.91350,
54374, 42.00000, -141.00000, 8.00000, 451.09406, 391.85181, -535.85815, -81.32800, -17.94000, 10.91350,
54380, 42.00000, -138.00000, 2.00000, 445.60089, 397.89429, -536.95679, -81.32800, -17.94000, 10.91350,
54387, 39.00000, -135.00000, -11.00000, 438.94806, 404.66919, -538.17749, -81.32800, -17.94000, 10.91350,
54419, 39.00000, -156.00000, -18.00000, 405.92804, 433.41675, -544.40308, -76.09550, 4.93350, 23.17250,
54435, 23.00000, -145.00000, -29.00000, 389.93683, 445.86792, -546.41724, -76.09550, 4.93350, 23.17250,
54466, -7316.00000, 3366.00000, 13174.00000, 584.70001, -250.23804, -72.96753, -55.31500, 22.72400, 24.36850,
54496, 215.00000, 2024.00000, 2142.00000, 551.61896, -279.22974, -38.84888, -57.85650, 41.41150, 4.93350,
54505, 604.00000, 2250.00000, 1631.00000, 415.99884, -235.10132, -68.20679, -57.85650, 41.41150, 4.93350,
54535, -1225.00000, 2067.00000, 5090.00000, -885.14862, 444.09790, -537.56714, -62.04250, 33.33850, 20.63100,
54588, -1345.00000, 216.00000, 4307.00000, -910.47821, 686.95679, -442.65747, -62.04250, 33.33850, 20.63100,
54621, -4187.00000, -3858.00000, 594.00000, -238.11493, 341.43677, 34.33228, -36.92650, 10.01650, 26.61100,
54628, -3250.00000, -2713.00000, 613.00000, -183.79364, 303.71704, 82.30591, -36.92650, 10.01650, 26.61100,
54660, -2458.00000, -959.00000, 490.00000, -220.04852, 176.76392, 111.05347, -36.92650, 10.01650, 26.61100,
54667, -2519.00000, -847.00000, 207.00000, -203.93524, 117.80396, 80.53589, -36.92650, 10.01650, 26.61100,
54700, -4600.00000, -343.00000, 2197.00000, -10.75897, 103.09448, -298.12622, -36.92650, 10.01650, 26.61100,
54730, -4660.00000, -2309.00000, 563.00000, 30.13458, -36.61499, -221.34399, -36.92650, 10.01650, 26.61100,
54740, -3323.00000, -2467.00000, 505.00000, 27.75421, -71.40503, -164.58130, -26.76050, -6.72750, 10.61450,
54749, -2404.00000, -2417.00000, 616.00000, 12.55646, -63.95874, -135.83374, -26.76050, -6.72750, 10.61450,
54784, -1136.00000, -2552.00000, 251.00000, -47.13593, 83.50220, -88.77563, -26.76050, -6.72750, 10.61450,
54811, -2892.00000, -2441.00000, 841.00000, 65.29083, -93.92700, -31.15845, -24.51800, -7.77400, 8.82050,
54887, -2309.00000, -2833.00000, 184.00000, 53.51105, -73.72437, -19.62280, -27.05950, -7.77400, 8.82050,
54896, -2094.00000, -2739.00000, 62.00000, 34.65118, -89.28833, 26.94702, -27.05950, -7.77400, 8.82050,
54906, -1997.00000, -2486.00000, 52.00000, 34.04083, -103.38745, 76.75171, -27.05950, -7.77400, 8.82050,
54917, -2002.00000, -2120.00000, 73.00000, 54.36554, -110.77271, 127.34985, -27.05950, -7.77400, 8.82050,
54950, -2061.00000, -1633.00000, 399.00000, 74.93439, -119.98901, 110.56519, -28.10600, -5.98000, 15.24900,
54957, -2000.00000, -1713.00000, 553.00000, 62.54425, -113.64136, 78.88794, -28.10600, -5.98000, 15.24900,
54985, -1569.00000, -1875.00000, 607.00000, -0.68817, -121.63696, -40.55786, -30.64750, -5.23250, 17.64100,
54997, -1191.00000, -1659.00000, 375.00000, -16.92352, -151.17798, -48.00415, -30.64750, -5.23250, 17.64100,
55030, -1120.00000, -1788.00000, 361.00000, 9.44366, -141.53442, 6.37817, -30.64750, -5.23250, 17.64100,
55039, -1414.00000, -1980.00000, 553.00000, 1.87531, -96.61255, 36.22437, -37.97300, -6.27900, 20.48150,
55069, -960.00000, -1506.00000, 117.00000, 37.58087, -125.66528, -45.80688, -39.01950, -9.71750, 21.22900,
55122, -925.00000, -1442.00000, 194.00000, 60.46906, -162.40845, -67.47437, -39.01950, -9.71750, 21.22900,
55128, -933.00000, -1391.00000, 263.00000, 79.51202, -193.23120, -76.20239, -39.01950, -9.71750, 21.22900,
55139, -942.00000, -1304.00000, 387.00000, 100.20294, -249.50562, -80.65796, -41.41150, -7.62450, 23.92000,
55147, -1191.00000, -1236.00000, -301.00000, 124.18976, -280.45044, -86.94458, -41.41150, -7.62450, 23.92000,
55179, -615.00000, -1318.00000, 629.00000, 240.40070, -355.64575, -110.32104, -41.41150, -7.62450, 23.92000,
55187, -475.00000, -1102.00000, 916.00000, 218.18390, -352.47192, -84.62524, -41.41150, -7.62450, 23.92000,
55195, -595.00000, -1005.00000, 1233.00000, 175.52032, -338.86108, -77.91138, -41.41150, -7.62450, 23.92000,
55204, -653.00000, -1111.00000, 1431.00000, 152.93732, -316.03394, -91.94946, -41.41150, -7.62450, 23.92000,
55210, -559.00000, -1233.00000, 1499.00000, 146.16241, -299.31030, -97.74780, -41.41150, -7.62450, 23.92000,
55219, -321.00000, -1429.00000, 1593.00000, 145.55206, -267.81616, -93.23120, -41.41150, -7.62450, 23.92000,
55225, -170.00000, -1561.00000, 1688.00000, 154.09698, -242.73071, -77.60620, -41.41150, -7.62450, 23.92000,
55235, -152.00000, -1598.00000, 1814.00000, 179.12140, -199.27368, -46.47827, -41.41150, -7.62450, 23.92000,
55242, -209.00000, -1511.00000, 1881.00000, 190.22980, -170.09888, -29.69360, -41.41150, -7.62450, 23.92000,
55250, -219.00000, -1390.00000, 1892.00000, 194.44122, -134.27124, -12.90894, -41.41150, -7.62450, 23.92000,
55257, -194.00000, -1306.00000, 1833.00000, 188.52081, -104.73022, 0.45776, -41.41150, -7.62450, 23.92000,
55264, -140.00000, -1224.00000, 1696.00000, 167.95197, -80.98755, 14.19067, -41.41150, -7.62450, 23.92000,
55275, -46.00000, -1102.00000, 1432.00000, 129.13361, -72.44263, 35.61401, -41.41150, -7.62450, 23.92000,
55281, -2.00000, -1006.00000, 1281.00000, 107.95441, -78.48511, 50.20142, -66.97600, 10.01650, 26.61100,
55289, 28.00000, -792.00000, 1150.00000, 84.63898, -92.09595, 67.04712, -66.97600, 10.01650, 26.61100,
55320, -3.00000, -272.00000, 577.00000, 163.98468, -118.03589, 23.52905, -74.45100, 9.71750, 27.65750,
55373, 59.00000, -438.00000, 801.00000, 226.97296, -131.15845, -1.67847, -74.45100, 9.71750, 27.65750,
55408, 802.00000, 112.00000, 2001.00000, 284.34601, -200.31128, 39.33716, -75.04900, 17.64100, 21.82700,
55415, 965.00000, 179.00000, 2060.00000, 245.46661, -193.47534, 60.27222, -75.04900, 17.64100, 21.82700,
55423, 1131.00000, 229.00000, 2088.00000, 202.92511, -173.63892, 75.53101, -75.04900, 17.64100, 21.82700,
55430, 1246.00000, 241.00000, 2080.00000, 157.27081, -136.89575, 86.51733, -78.63700, 22.87350, 16.14600,
55440, 1306.00000, 230.00000, 2085.00000, 98.49396, -68.47534, 98.72437, -78.63700, 22.87350, 16.14600,
55446, 1259.00000, 181.00000, 2115.00000, 68.83087, -22.02759, 104.70581, -78.63700, 22.87350, 16.14600,
55455, 1148.00000, 162.00000, 2021.00000, 44.84406, 29.79126, 104.94995, -78.63700, 22.87350, 16.14600,
55461, 1090.00000, 188.00000, 1852.00000, 38.86261, 54.69360, 98.66333, -78.63700, 22.87350, 16.14600,
55469, 1011.00000, 308.00000, 1543.00000, 42.70782, 63.42163, 84.50317, -78.63700, 22.87350, 16.14600,
55478, 930.00000, 479.00000, 1345.00000, 48.68927, 50.29907, 72.11304, -80.43100, 20.33200, 14.95000,
55486, 857.00000, 559.00000, 1293.00000, 50.52032, 31.68335, 65.46021, -80.43100, 20.33200, 14.95000,
55493, 790.00000, 580.00000, 1273.00000, 48.75031, 17.64526, 62.83569, -80.43100, 20.33200, 14.95000,
55500, 709.00000, 513.00000, 1236.00000, 45.14923, 8.24585, 60.08911, -80.43100, 20.33200, 14.95000,
55508, 649.00000, 399.00000, 1169.00000, 44.41681, -0.66528, 52.70386, -80.43100, 20.33200, 14.95000,
55516, 604.00000, 262.00000, 1100.00000, 52.77863, -14.64233, 37.87231, -80.43100, 20.33200, 14.95000,
55525, 596.00000, 203.00000, 1088.00000, 69.38019, -33.31909, 19.07349, -80.43100, 20.33200, 14.95000,
55531, 630.00000, 201.00000, 1121.00000, 83.84552, -46.38062, 6.98853, -80.28150, 24.96650, 13.00650,
55540, 727.00000, 199.00000, 1280.00000, 101.42365, -60.66284, -2.04468, -80.28150, 24.96650, 13.00650,
55546, 815.00000, 186.00000, 1467.00000, 107.09991, -65.42358, -1.86157, -80.28150, 24.96650, 13.00650,
55558, 1145.00000, 136.00000, 2073.00000, 90.86456, -56.93970, 14.25171, -80.28150, 24.96650, 13.00650,
55565, 1328.00000, 246.00000, 2506.00000, 69.01398, -41.00952, 28.96118, -80.28150, 24.96650, 13.00650,
55572, 917.00000, 314.00000, 1567.00000, -46.70868, 69.64722, 99.94507, -80.87950, 25.11600, 11.06300,
55625, 756.00000, 340.00000, 1388.00000, -29.67987, 71.72241, 88.47046, -80.87950, 25.11600, 11.06300,
55657, 521.00000, 360.00000, 1468.00000, 36.66534, 69.15894, 49.77417, -82.82300, 19.73400, 11.66100,
55667, 552.00000, 333.00000, 1575.00000, 35.62775, 52.74048, 48.67554, -82.82300, 19.73400, 11.66100,
55697, 730.00000, 513.00000, 1832.00000, 15.36407, 42.18140, 50.81177, -82.82300, 19.73400, 11.66100,
55706, 724.00000, 515.00000, 1812.00000, 15.97443, 43.09692, 50.87280, -82.82300, 19.73400, 11.66100,
55712, 717.00000, 492.00000, 1818.00000, 15.18097, 41.26587, 52.70386, -82.82300, 19.73400, 11.66100,
55720, 680.00000, 470.00000, 1838.00000, 12.06818, 36.74927, 55.99976, -82.82300, 19.73400, 11.66100,
55729, 649.00000, 453.00000, 1800.00000, 5.59845, 29.42505, 57.76978, -82.82300, 19.73400, 11.66100,
55737, 645.00000, 379.00000, 1757.00000, 2.48566, 24.72534, 55.81665, -82.82300, 19.73400, 11.66100,
55744, 637.00000, 268.00000, 1762.00000, 4.37775, 21.12427, 50.56763, -82.82300, 19.73400, 11.66100,
55751, 600.00000, 228.00000, 1776.00000, 13.96027, 18.68286, 44.58618, -82.82300, 19.73400, 11.66100,
55758, 576.00000, 270.00000, 1806.00000, 32.08771, 17.40112, 40.43579, -82.82300, 19.73400, 11.66100,
55767, 591.00000, 354.00000, 1900.00000, 46.79718, 18.68286, 40.92407, -82.82300, 19.73400, 11.66100,
55776, 615.00000, 422.00000, 1974.00000, 48.50616, 23.87085, 43.48755, -82.97250, 22.57450, 14.65100,
55781, 629.00000, 437.00000, 2025.00000, 44.84406, 28.32642, 45.31860, -82.97250, 22.57450, 14.65100,
55790, 653.00000, 412.00000, 2093.00000, 39.77814, 34.55200, 46.53931, -82.97250, 22.57450, 14.65100,
55796, 670.00000, 376.00000, 2141.00000, 38.37433, 38.39722, 45.68481, -82.97250, 22.57450, 14.65100,
55806, 688.00000, 307.00000, 2274.00000, 39.83917, 39.73999, 42.14478, -82.97250, 22.57450, 14.65100,
55813, 721.00000, 277.00000, 2339.00000, 39.10675, 39.86206, 40.86304, -82.97250, 22.57450, 14.65100,
55820, 726.00000, 251.00000, 2353.00000, 36.23810, 37.23755, 41.04614, -82.97250, 22.57450, 14.65100,
55828, 691.00000, 403.00000, 2159.00000, 10.11505, -4.57153, 54.10767, -83.57050, 23.17250, 13.00650,
55853, 666.00000, 490.00000, 2146.00000, -9.17206, -11.16333, 63.87329, -83.57050, 23.17250, 13.00650,
55864, 706.00000, 551.00000, 2073.00000, -50.61493, -13.72681, 79.98657, -83.57050, 23.17250, 13.00650,
55869, 717.00000, 546.00000, 1986.00000, -78.69110, -8.78296, 88.04321, -83.57050, 23.17250, 13.00650,
55878, 657.00000, 509.00000, 1840.00000, -113.48114, 3.17993, 95.61157, -85.21500, 19.13600, 13.30550,
55884, 593.00000, 479.00000, 1722.00000, -127.45818, 9.28345, 97.56470, -85.21500, 19.13600, 13.30550,
55892, 500.00000, 323.00000, 1553.00000, -134.11102, 16.66870, 98.29712, -85.21500, 19.13600, 13.30550,
55901, 381.00000, 128.00000, 1546.00000, -107.01141, 20.51392, 85.96802, -85.21500, 19.13600, 13.30550,
55908, 378.00000, -17.00000, 1674.00000, -62.51678, 11.72485, 67.90161, -85.21500, 19.13600, 13.30550,
55916, 429.00000, -50.00000, 1863.00000, -9.78241, -4.99878, 48.85864, -85.21500, 19.13600, 13.30550,
55923, 517.00000, 9.00000, 2031.00000, 28.60870, -17.99927, 35.79712, -85.66350, 15.69750, 15.24900,
55930, 575.00000, 83.00000, 2074.00000, 44.11163, -21.47827, 28.90015, -85.66350, 15.69750, 15.24900,
55939, 635.00000, 70.00000, 2125.00000, 30.13458, -13.84888, 30.60913, -85.66350, 15.69750, 15.24900,
55947, 622.00000, 91.00000, 2173.00000, 1.57013, -2.67944, 35.18677, -85.66350, 15.69750, 15.24900,
55987, 698.00000, 104.00000, 2175.00000, -97.73407, -2.37427, 59.96704, -87.30800, 11.66100, 15.69750,
55993, 713.00000, 141.00000, 2240.00000, -124.83368, 0.98267, 69.97681, -87.30800, 11.66100, 15.69750,
55999, 718.00000, 156.00000, 2260.00000, -149.06464, 4.76685, 79.74243, -87.30800, 11.66100, 15.69750,
56009, 700.00000, 106.00000, 2228.00000, -197.16034, 12.51831, 101.40991, -87.30800, 11.66100, 15.69750,
56017, 638.00000, 16.00000, 2211.00000, -220.84198, 14.95972, 119.78149, -87.30800, 11.66100, 15.69750,
56024, 600.00000, -125.00000, 2146.00000, -233.29315, 12.45728, 141.44897, -86.11200, 7.77400, 14.80050,
56031, 593.00000, -394.00000, 1933.00000, -226.94550, 13.18970, 154.14429, -86.11200, 7.77400, 14.80050,
56038, 500.00000, -492.00000, 1741.00000, -215.89813, 13.98315, 157.98950, -86.11200, 7.77400, 14.80050,
56048, 376.00000, -580.00000, 1642.00000, -214.55536, 13.92212, 159.45435, -86.11200, 7.77400, 14.80050,
56054, 353.00000, -561.00000, 1631.00000, -217.05780, 17.09595, 165.31372, -86.11200, 7.77400, 14.80050,
56063, 370.00000, -529.00000, 1617.00000, -222.18475, 11.96899, 172.33276, -86.11200, 7.77400, 14.80050,
56069, 368.00000, -519.00000, 1605.00000, -228.71552, 2.63062, 176.48315, -86.11200, 7.77400, 14.80050,
56077, 343.00000, -507.00000, 1580.00000, -241.96014, -9.33228, 182.58667, -86.26150, -1.94350, 15.39850,
56082, 297.00000, -681.00000, 1568.00000, -269.79218, 4.76685, 212.43286, -86.26150, -1.94350, 15.39850,
56111, 293.00000, -676.00000, 1514.00000, -268.51044, 9.22241, 211.27319, -86.26150, -1.94350, 15.39850,
56117, 325.00000, -665.00000, 1440.00000, -271.56219, 1.16577, 204.43726, -86.26150, -1.94350, 15.39850,
56125, 373.00000, -763.00000, 1378.00000, -277.60468, -22.08862, 189.72778, -83.72000, -13.60450, 12.55800,
56134, 378.00000, -962.00000, 1418.00000, -286.75995, -56.87866, 173.49243, -83.72000, -13.60450, 12.55800,
56141, 391.00000, -1173.00000, 1476.00000, -292.43622, -75.18921, 166.65649, -83.72000, -13.60450, 12.55800,
56148, 427.00000, -1499.00000, 1587.00000, -295.85419, -81.41479, 165.92407, -83.72000, -13.60450, 12.55800,
56156, 581.00000, -1847.00000, 1727.00000, -287.73651, -64.69116, 173.79761, -83.72000, -13.60450, 12.55800,
56163, 580.00000, -1946.00000, 1783.00000, -274.91913, -31.48804, 179.22974, -83.72000, -13.60450, 12.55800,
56172, 479.00000, -1889.00000, 1705.00000, -272.90497, 9.10034, 173.91968, -82.82300, -22.42500, 6.72750,
56180, 399.00000, -1827.00000, 1507.00000, -272.05048, 38.09204, 169.28101, -82.82300, -22.42500, 6.72750,
56186, 323.00000, -1711.00000, 1385.00000, -266.80145, 50.29907, 168.67065, -82.82300, -22.42500, 6.72750,
56194, 275.00000, -1558.00000, 1150.00000, -264.60419, 66.10718, 157.68433, -82.82300, -22.42500, 6.72750,
56200, 178.00000, -1509.00000, 1068.00000, -265.64178, 82.15942, 144.56177, -82.82300, -22.42500, 6.72750,
56211, 35.00000, -1553.00000, 940.00000, -256.36444, 101.75171, 111.29761, -82.82300, -22.42500, 6.72750,
56218, -61.00000, -1716.00000, 872.00000, -237.13837, 105.90210, 84.38110, -82.82300, -22.42500, 6.72750,
56225, -157.00000, -1817.00000, 795.00000, -209.12323, 98.57788, 55.87769, -82.82300, -22.42500, 6.72750,
56232, -198.00000, -1900.00000, 746.00000, -182.26776, 79.59595, 36.34644, -82.82300, -22.42500, 6.72750,
56241, -178.00000, -2010.00000, 727.00000, -152.23846, 52.13013, 25.97046, -82.82300, -22.42500, 6.72750,
56249, -85.00000, -2129.00000, 744.00000, -136.43036, 31.07300, 30.30396, -82.82300, -22.42500, 6.72750,
56255, 164.00000, -2254.00000, 847.00000, -132.70721, 26.19019, 34.21021, -82.82300, -22.42500, 6.72750,
56264, 228.00000, -2250.00000, 907.00000, -139.48212, 34.06372, 50.20142, -82.82300, -22.42500, 6.72750,
56270, 201.00000, -2189.00000, 870.00000, -147.23358, 35.58960, 60.08911, -82.82300, -22.42500, 6.72750,
56280, 169.00000, -2046.00000, 772.00000, -161.45477, 26.86157, 78.70483, -82.82300, -22.42500, 6.72750,
56287, 70.00000, -1910.00000, 703.00000, -169.99969, 17.09595, 89.32495, -82.82300, -22.42500, 6.72750,
56294, 62.00000, -1833.00000, 691.00000, -174.08905, 3.60718, 92.49878, -82.82300, -22.42500, 6.72750,
56302, 23.00000, -1781.00000, 646.00000, -175.12665, -7.68433, 94.26880, -82.82300, -22.42500, 6.72750,
56309, -16.00000, -1757.00000, 603.00000, -174.69940, -24.16382, 92.49878, -82.82300, -22.42500, 6.72750,
56319, -216.00000, -1819.00000, 481.00000, -168.71796, -59.80835, 86.76147, -74.45100, -33.18900, -8.52150,
56325, -335.00000, -1802.00000, 415.00000, -162.79755, -80.74341, 85.41870, -74.45100, -33.18900, -8.52150,
56333, -309.00000, -1746.00000, 543.00000, -115.55634, -1.76392, 96.16089, -74.45100, -33.18900, -8.52150,
56359, -297.00000, -1681.00000, 496.00000, -104.14276, 28.44849, 95.97778, -74.45100, -33.18900, -8.52150,
56368, -368.00000, -1593.00000, 370.00000, -82.17010, 67.14478, 88.10425, -69.06900, -33.93650, -12.40850,
56377, -578.00000, -1571.00000, 142.00000, -56.23016, 76.91040, 65.21606, -69.06900, -33.93650, -12.40850,
56384, -684.00000, -1778.00000, 27.00000, -33.89130, 60.18677, 49.28589, -69.06900, -33.93650, -12.40850,
56391, -648.00000, -2243.00000, 23.00000, -28.39813, 42.30347, 61.43188, -69.06900, -33.93650, -12.40850,
56398, -526.00000, -2596.00000, 50.00000, -42.55829, 29.05884, 88.65356, -69.06900, -33.93650, -12.40850,
56406, -500.00000, -2642.00000, 84.00000, -73.13690, 20.94116, 106.35376, -69.06900, -33.93650, -12.40850,
56414, -489.00000, -2425.00000, 44.00000, -99.07684, 26.67847, 112.88452, -69.06900, -33.93650, -12.40850,
56423, -513.00000, -2136.00000, 35.00000, -105.85175, 42.48657, 103.54614, -66.67700, -34.08600, -12.85700,
56429, -528.00000, -1990.00000, 71.00000, -102.00653, 51.76392, 92.55981, -66.67700, -34.08600, -12.85700,
56437, -538.00000, -1896.00000, 143.00000, -86.32050, 57.62329, 65.64331, -66.67700, -34.08600, -12.85700,
56446, -532.00000, -1890.00000, 248.00000, -63.92059, 41.26587, 35.43091, -66.67700, -34.08600, -12.85700,
56454, -523.00000, -1898.00000, 256.00000, -51.83563, 22.28394, 21.63696, -66.67700, -34.08600, -12.85700,
56461, -501.00000, -1915.00000, 209.00000, -47.44110, 8.12378, 14.86206, -66.67700, -34.08600, -12.85700,
56468, -485.00000, -1973.00000, 164.00000, -47.86835, 2.81372, 10.83374, -65.63050, -36.32850, -14.95000,
56475, -509.00000, -2045.00000, 139.00000, -46.46454, 2.08130, 5.21851, -65.63050, -36.32850, -14.95000,
56484, -600.00000, -2120.00000, 106.00000, -37.98065, 1.04370, -1.80054, -65.63050, -36.32850, -14.95000,
56492, -638.00000, -2146.00000, 60.00000, -24.00360, 0.31128, -7.78198, -65.63050, -36.32850, -14.95000,
56498, -633.00000, -2107.00000, 28.00000, -14.54315, 1.34888, -12.35962, -65.63050, -36.32850, -14.95000,
56507, -616.00000, -1996.00000, 26.00000, -2.39716, 4.27856, -21.45386, -65.63050, -36.32850, -14.95000,
56513, -613.00000, -1933.00000, 14.00000, 5.90363, 6.04858, -27.55737, -65.63050, -36.32850, -14.95000,
56523, -593.00000, -1875.00000, -31.00000, 12.25128, 5.98755, -31.40259, -66.67700, -33.78700, -15.39850,
56530, -603.00000, -1851.00000, -67.00000, 7.79572, 0.67749, -29.93774, -66.67700, -33.78700, -15.39850,
56538, -579.00000, -1862.00000, -88.00000, -4.65546, -7.31812, -24.07837, -66.67700, -33.78700, -15.39850,
56545, -582.00000, -1863.00000, -67.00000, -17.22870, -14.94751, -17.54761, -66.67700, -33.78700, -15.39850,
56553, -661.00000, -1834.00000, -37.00000, -19.97528, -20.07446, -14.06860, -66.67700, -33.78700, -15.39850,
56563, -751.00000, -1798.00000, -60.00000, -3.37372, -21.35620, -18.58521, -66.67700, -33.78700, -15.39850,
56569, -766.00000, -1842.00000, -56.00000, 15.97443, -19.83032, -28.71704, -67.87300, -36.02950, -16.44500,
56578, -709.00000, -1961.00000, -49.00000, 49.90997, -16.29028, -47.14966, -67.87300, -36.02950, -16.44500,
56584, -413.00000, -1971.00000, 116.00000, 79.93927, 7.39136, -42.63306, -67.87300, -36.02950, -16.44500,
56612, -450.00000, -1935.00000, 22.00000, 61.38458, 13.73901, -23.10181, -67.87300, -36.02950, -16.44500,
56620, -531.00000, -1921.00000, -52.00000, 50.15411, 9.16138, -19.07349, -65.92950, -34.08600, -10.76400,
56627, -672.00000, -1940.00000, -123.00000, 43.07404, -6.58569, -23.71216, -65.92950, -34.08600, -10.76400,
56635, -720.00000, -1985.00000, -136.00000, 45.02716, -28.37524, -34.94263, -65.92950, -34.08600, -10.76400,
56642, -702.00000, -2022.00000, -81.00000, 50.82550, -44.06128, -45.92896, -65.92950, -34.08600, -10.76400,
56652, -533.00000, -2067.00000, 48.00000, 54.97589, -55.41382, -51.42212, -65.92950, -34.08600, -10.76400,
56658, -400.00000, -2100.00000, 149.00000, 53.38898, -47.72339, -43.36548, -65.92950, -34.08600, -10.76400,
56667, -306.00000, -2226.00000, 178.00000, 50.82550, -28.49731, -25.72632, -70.11550, -38.87000, -7.02650,
56673, -423.00000, -2376.00000, 211.00000, 51.86310, -21.96655, -21.33179, -70.11550, -38.87000, -7.02650,
56682, -647.00000, -2594.00000, 232.00000, 63.39874, -36.06567, -29.57153, -70.11550, -38.87000, -7.02650,
56691, -762.00000, -2604.00000, 102.00000, 79.26788, -66.52222, -41.47339, -70.11550, -38.87000, -7.02650,
56698, -827.00000, -2457.00000, -17.00000, 81.40411, -74.33472, -52.39868, -70.11550, -38.87000, -7.02650,
56706, -764.00000, -2329.00000, -165.00000, 70.60089, -81.84204, -59.35669, -70.11550, -38.87000, -7.02650,
56713, -706.00000, -2170.00000, -121.00000, 50.52032, -89.28833, -64.17847, -69.81650, -37.37500, -7.02650,
56721, -598.00000, -2040.00000, -35.00000, 31.11115, -92.09595, -66.86401, -69.81650, -37.37500, -7.02650,
56730, -501.00000, -1819.00000, 79.00000, 21.89484, -86.54175, -60.02808, -69.81650, -37.37500, -7.02650,
56739, -419.00000, -1757.00000, 196.00000, 12.67853, -75.43335, -45.13550, -69.81650, -37.37500, -7.02650,
56745, -352.00000, -1758.00000, 189.00000, 8.71124, -66.58325, -36.16333, -69.81650, -37.37500, -7.02650,
56753, -283.00000, -1764.00000, 178.00000, -2.09198, -62.18872, -29.63257, -69.81650, -37.37500, -7.02650,
56762, -268.00000, -1723.00000, 261.00000, -17.83905, -61.88354, -21.27075, -69.81650, -37.37500, -7.02650,
56769, -208.00000, -1671.00000, 241.00000, -34.13544, -48.76099, -17.48657, -69.81650, -37.37500, -7.02650,
56776, -290.00000, -1814.00000, 269.00000, -40.72723, -33.62427, -23.10181, -69.81650, -37.37500, -7.02650,
56784, -352.00000, -1910.00000, 322.00000, -35.90546, -24.34692, -29.38843, -69.81650, -37.37500, -7.02650,
56793, -413.00000, -1984.00000, 374.00000, -26.87225, -5.36499, -26.39771, -69.81650, -37.37500, -7.02650,
56800, -468.00000, -2117.00000, 431.00000, -21.19598, 14.04419, -11.74927, -69.81650, -37.37500, -7.02650,
56806, -604.00000, -2221.00000, 410.00000, -19.54803, 33.14819, 18.15796, -69.81650, -37.37500, -7.02650,
56812, -636.00000, -2236.00000, 415.00000, -24.43085, 53.16772, 49.89624, -69.81650, -37.37500, -7.02650,
56841, -599.00000, -2017.00000, -524.00000, -227.12860, 105.53589, 107.69653, -66.52750, -42.90650, -15.84700,
56894, -602.00000, -1839.00000, -490.00000, -241.53290, 121.16089, 89.81323, -66.52750, -42.90650, -15.84700,
56909, -534.00000, -1758.00000, -428.00000, -246.11053, 124.39575, 69.18335, -66.52750, -42.90650, -15.84700,
56916, -689.00000, -1837.00000, -492.00000, -233.23212, 105.41382, 67.41333, -63.53750, -42.75700, -27.05950,
56948, -813.00000, -1816.00000, -626.00000, -102.00653, 6.78101, 53.74146, -63.53750, -42.75700, -27.05950,
56955, -767.00000, -1792.00000, -651.00000, -87.35809, 22.40601, 65.09399, -63.53750, -42.75700, -27.05950,
56988, -1230.00000, -1385.00000, -867.00000, -99.38202, 92.90161, 88.53149, -60.24850, -43.80350, -34.53450,
57018, -978.00000, -1663.00000, -667.00000, -65.14130, -4.81567, 1.37329, -57.25850, -43.80350, -38.87000,
57028, -915.00000, -1638.00000, -876.00000, -19.48700, -58.83179, -4.42505, -57.25850, -43.80350, -38.87000,
57058, -840.00000, -2216.00000, -1215.00000, 8.89435, -26.60522, -49.04175, -57.25850, -43.80350, -38.87000,
57068, -711.00000, -2177.00000, -589.00000, -14.42108, -11.16333, -30.73120, -56.81000, -45.89650, -38.57100,
57082, -889.00000, -1929.00000, -554.00000, 8.95538, -0.48218, -14.49585, -56.81000, -45.89650, -38.57100,
57090, -812.00000, -1809.00000, -547.00000, 26.10626, -21.72241, -24.87183, -56.81000, -45.89650, -38.57100,
57122, -786.00000, -2156.00000, -734.00000, 54.30450, -25.38452, -8.75854, -55.31500, -47.09250, -40.06600,
57203, -643.00000, -2275.00000, -576.00000, -13.44452, -87.88452, -6.56128, -55.31500, -47.09250, -40.06600,
57213, -694.00000, -2033.00000, -614.00000, -31.02264, -88.31177, 9.00269, -55.31500, -46.64400, -41.11250,
57229, -938.00000, -1789.00000, -603.00000, -20.58563, -75.18921, 6.62231, -55.31500, -46.64400, -41.11250,
57236, -988.00000, -1715.00000, -491.00000, -14.11591, -71.77124, -13.64136, -55.31500, -46.64400, -41.11250,
57269, -610.00000, -1990.00000, -299.00000, 54.36554, -121.94214, -129.30298, -51.57750, -47.54100, -44.10250,
57276, -619.00000, -1994.00000, -418.00000, 83.05206, -143.48755, -148.71216, -51.57750, -47.54100, -44.10250,
57310, -885.00000, -1802.00000, -451.00000, 140.30304, -133.96606, -128.99780, -51.57750, -47.54100, -44.10250,
57339, -575.00000, -1933.00000, -405.00000, -1.66473, -90.63110, -64.23950, -51.57750, -47.54100, -44.10250,
57348, -489.00000, -1967.00000, -322.00000, -37.61444, -75.98267, -51.05591, -51.57750, -47.54100, -44.10250,
57357, -455.00000, -1995.00000, -255.00000, -53.60565, -62.79907, -43.12134, -51.57750, -47.54100, -44.10250,
57389, -514.00000, -1966.00000, -264.00000, -40.29999, -9.88159, -11.62720, -57.25850, -50.53100, -44.10250,
57445, -480.00000, -1986.00000, -257.00000, -49.76044, -13.78784, -16.99829, -57.25850, -50.53100, -44.10250,
57453, -451.00000, -2000.00000, -303.00000, -53.42255, -13.54370, -18.52417, -57.25850, -50.53100, -44.10250,
57483, -412.00000, -2009.00000, -429.00000, -34.37958, -4.08325, -19.50073, -56.06250, -50.83000, -47.84000,
57493, -403.00000, -2008.00000, -437.00000, -27.11639, -1.03149, -16.02173, -56.06250, -50.83000, -47.84000,
57528, -420.00000, -1981.00000, -409.00000, -30.47333, -16.41235, -23.65112, -51.12900, -49.48450, -53.37150,
57542, -392.00000, -1977.00000, -467.00000, -40.72723, -26.05591, -21.45386, -51.12900, -49.48450, -53.37150,
57572, -327.00000, -2017.00000, -385.00000, -18.57147, -7.19604, 1.80054, -52.17550, -49.03600, -55.91300,
57602, -375.00000, -1895.00000, -432.00000, 23.11554, -38.99536, -43.30444, -52.02600, -51.12900, -56.06250,
57611, -455.00000, -1944.00000, -394.00000, 39.59503, -27.27661, -63.99536, -52.02600, -51.12900, -56.06250,
57622, -453.00000, -2040.00000, -422.00000, 46.79718, -19.89136, -59.72290, -52.02600, -51.12900, -56.06250,
57629, -433.00000, -2035.00000, -487.00000, 43.19611, -15.74097, -44.34204, -52.02600, -51.12900, -56.06250,
57636, -340.00000, -1995.00000, -459.00000, 38.67950, -10.18677, -32.19604, -52.02600, -51.12900, -56.06250,
57644, -286.00000, -2069.00000, -219.00000, 26.28937, -34.90601, -46.47827, -58.60400, -50.38150, -49.63400,
57694, -259.00000, -2065.00000, -230.00000, 32.69806, -40.70435, -48.43140, -58.60400, -50.38150, -49.63400,
57705, -312.00000, -2005.00000, -323.00000, 26.10626, -44.91577, -44.21997, -56.36150, -50.08250, -52.17550,
57735, -282.00000, -2005.00000, -505.00000, -30.59540, -51.75171, -27.00806, -56.36150, -50.08250, -52.17550,
57744, -195.00000, -2025.00000, -472.00000, -33.15887, -49.06616, -22.73560, -56.36150, -50.08250, -52.17550,
57750, -129.00000, -2012.00000, -454.00000, -31.99921, -42.77954, -25.17700, -56.95950, -49.48450, -53.07250,
57759, -137.00000, -2037.00000, -499.00000, -27.17743, -38.81226, -25.66528, -56.95950, -49.48450, -53.07250,
57768, -99.00000, -2077.00000, -481.00000, -16.25214, -32.76978, -19.86694, -56.95950, -49.48450, -53.07250,
57800, -249.00000, -2032.00000, -237.00000, -20.46356, -22.82104, 13.39722, -56.95950, -49.48450, -53.07250,
57807, -286.00000, -1945.00000, -290.00000, -36.57684, -42.41333, 5.27954, -56.95950, -49.48450, -53.07250,
57815, -326.00000, -1893.00000, -379.00000, -58.30536, -61.09009, -8.14819, -56.95950, -49.48450, -53.07250,
57827, -271.00000, -1946.00000, -444.00000, -86.13739, -78.79028, -23.89526, -56.95950, -49.48450, -53.07250,
57833, -237.00000, -1981.00000, -500.00000, -90.47089, -81.23169, -27.19116, -56.95950, -49.48450, -53.07250,
57842, -217.00000, -1992.00000, -522.00000, -89.98260, -80.62134, -27.86255, -56.95950, -49.48450, -53.07250,
57849, -191.00000, -1987.00000, -503.00000, -87.23602, -75.61646, -27.98462, -56.95950, -49.48450, -53.07250,
57858, -71.00000, -1931.00000, -465.00000, -79.42352, -72.07642, -41.16821, -56.95950, -49.48450, -53.07250,
57867, -142.00000, -1899.00000, -488.00000, -65.69061, -73.54126, -65.21606, -56.95950, -49.48450, -53.07250,
57875, -78.00000, -1958.00000, -475.00000, -53.66669, -72.99194, -86.27319, -56.95950, -49.48450, -53.07250,
57882, -116.00000, -2005.00000, -511.00000, -49.69940, -71.03882, -85.11353, -56.95950, -49.48450, -53.07250,
57889, -300.00000, -2061.00000, -619.00000, -54.82635, -68.78052, -71.74683, -56.95950, -49.48450, -53.07250,
57897, -152.00000, -1960.00000, -691.00000, -68.68134, -68.96362, -38.42163, -52.77350, -46.64400, -58.15550,
57924, -149.00000, -1950.00000, -695.00000, -68.49823, -64.44702, -35.24780, -52.77350, -46.64400, -58.15550,
57931, -157.00000, -1926.00000, -711.00000, -65.62958, -57.85522, -34.33228, -52.77350, -46.64400, -58.15550,
57939, -118.00000, -1950.00000, -723.00000, -59.22089, -49.37134, -32.56226, -52.77350, -46.64400, -58.15550,
57946, -107.00000, -1944.00000, -822.00000, -50.06561, -39.23950, -29.63257, -52.77350, -46.64400, -58.15550,
57955, -60.00000, -1974.00000, -844.00000, -32.36542, -30.45044, -25.78735, -51.72700, -44.85000, -58.15550,
57964, -86.00000, -2010.00000, -813.00000, -14.84833, -17.08374, -17.54761, -51.72700, -44.85000, -58.15550,
57971, -183.00000, -2060.00000, -780.00000, -1.66473, -10.55298, -5.27954, -51.72700, -44.85000, -58.15550,
57979, -154.00000, -2022.00000, -724.00000, 8.89435, -5.85327, 10.95581, -51.72700, -44.85000, -58.15550,
57986, -116.00000, -1964.00000, -698.00000, 12.00714, -6.82983, 15.53345, -51.72700, -44.85000, -58.15550,
57996, -45.00000, -1876.00000, -649.00000, 6.20880, -12.81128, 9.97925, -51.72700, -44.85000, -58.15550,
58003, -61.00000, -1850.00000, -671.00000, -6.42548, -15.67993, 3.08228, -53.37150, -42.00950, -58.75350,
58011, -73.00000, -1872.00000, -664.00000, -18.32733, -19.21997, -5.46265, -53.37150, -42.00950, -58.75350,
58018, -23.00000, -1917.00000, -635.00000, -20.82977, -23.49243, -14.98413, -53.37150, -42.00950, -58.75350,
58025, -247.00000, -1975.00000, -709.00000, -15.33661, -29.10767, -27.13013, -53.37150, -42.00950, -58.75350,
58036, -95.00000, -1995.00000, -633.00000, -14.05487, -38.01880, -31.76880, -53.37150, -42.00950, -58.75350,
58042, -82.00000, -2007.00000, -644.00000, -6.60858, -40.03296, -35.36987, -53.37150, -42.00950, -58.75350,
58051, -132.00000, -1949.00000, -772.00000, -0.01678, -48.82202, -34.94263, -52.62400, -42.00950, -60.09900,
58057, -163.00000, -1874.00000, -804.00000, -7.03583, -52.54517, -31.34155, -52.62400, -42.00950, -60.09900,
58069, -148.00000, -1848.00000, -840.00000, -24.18671, -48.88306, -27.86255, -52.62400, -42.00950, -60.09900,
58076, -125.00000, -1884.00000, -824.00000, -28.39813, -45.34302, -26.88599, -52.62400, -42.00950, -60.09900,
58084, -122.00000, -1893.00000, -814.00000, -28.39813, -41.55884, -26.64185, -52.62400, -42.00950, -60.09900,
58091, -133.00000, -1871.00000, -808.00000, -28.64227, -39.17847, -27.80151, -52.62400, -42.00950, -60.09900,
58099, -140.00000, -1872.00000, -831.00000, -29.74091, -37.71362, -30.30396, -51.27850, -42.15900, -59.94950,
58109, -102.00000, -1916.00000, -830.00000, -29.00848, -32.58667, -29.14429, -51.27850, -42.15900, -59.94950,
58115, -85.00000, -1929.00000, -838.00000, -26.87225, -28.43628, -26.64185, -51.27850, -42.15900, -59.94950,
58124, -91.00000, -1925.00000, -854.00000, -23.57635, -25.07935, -22.24731, -51.27850, -42.15900, -59.94950,
58130, -65.00000, -1930.00000, -844.00000, -18.63251, -23.55347, -19.01245, -51.27850, -42.15900, -59.94950,
58144, -137.00000, -1921.00000, -807.00000, -10.02655, -29.29077, -17.60864, -51.27850, -42.15900, -59.94950,
58151, -112.00000, -1897.00000, -839.00000, 1.20392, -47.11304, -23.52905, -50.97950, -42.90650, -57.40800,
58177, -65.00000, -1885.00000, -869.00000, 2.54669, -49.06616, -23.71216, -50.97950, -42.90650, -57.40800,
58184, -28.00000, -1884.00000, -878.00000, 3.82843, -44.97681, -22.18628, -50.97950, -42.90650, -57.40800,
58192, 9.00000, -1880.00000, -879.00000, 4.49982, -37.89673, -18.52417, -50.97950, -42.90650, -57.40800,
58202, 38.00000, -1878.00000, -874.00000, 4.13361, -23.00415, -11.50513, -48.28850, -42.00950, -59.05250,
58233, -60.00000, -1886.00000, -812.00000, 1.99738, -6.52466, -2.59399, -48.28850, -42.00950, -59.05250,
58241, 16.00000, -1908.00000, -834.00000, 1.02081, -8.29468, -0.27466, -48.28850, -42.00950, -59.05250,
58247, -141.00000, -1896.00000, -756.00000, 1.32599, -11.40747, -3.20435, -51.72700, -41.11250, -55.61400,
58256, -175.00000, -1935.00000, -910.00000, 0.59357, -13.11646, -4.97437, -51.72700, -41.11250, -55.61400,
58265, -173.00000, -1938.00000, -857.00000, 10.48126, -28.13110, -14.49585, -51.72700, -41.11250, -55.61400,
58273, 8.00000, -1871.00000, -973.00000, 16.76788, -25.81177, -16.87622, -51.72700, -41.11250, -55.61400,
58280, 65.00000, -1855.00000, -995.00000, 22.07794, -1.03149, -6.86646, -51.72700, -41.11250, -55.61400,
58287, 125.00000, -1862.00000, -942.00000, 27.14386, 24.66431, 6.56128, -51.72700, -41.11250, -55.61400,
