//--------- NEW START ---------//
// Drifter number: 1, Battery: 0.00
// IMU_update: 40 ms, GPS_update: 250 ms, Transciever_update: 8000 ms
// Accel_range: 16G, Gyro_range: 2000 dps
IMUtime, Ax, Ay, Az, Gx, Gy, Gz, Mx, My, Mz, P, T
8493, -87.00000, 16.00000, 2102.00000, -4.65546, -20.01343, 4.85229, -92.83950, -3.88700, 12.55800,
8533, -41.00000, -15.00000, 2098.00000, -5.93719, -37.83569, 5.34058, -92.83950, -3.88700, 12.55800,
8541, -27.00000, -19.00000, 2103.00000, -6.12030, -43.32886, 6.19507, -94.93250, -3.13950, 10.01650,
8553, -4.00000, -20.00000, 2100.00000, -6.18134, -48.76099, 7.17163, -94.93250, -3.13950, 10.01650,
8593, 67.00000, -21.00000, 2090.00000, -4.53339, -63.83667, 8.45337, -96.27800, -4.03650, 8.82050,
8633, 150.00000, -37.00000, 2074.00000, -5.14374, -85.19897, 9.42993, -96.27800, -4.03650, 8.82050,
8673, 237.00000, -45.00000, 2044.00000, -7.76825, -120.17212, 13.27515, -97.02550, -2.54150, 3.43850,
8679, 261.00000, -49.00000, 2029.00000, -8.74481, -130.67017, 14.19067, -97.02550, -2.54150, 3.43850,
8691, 341.00000, -56.00000, 2093.00000, -10.02655, -146.47827, 15.65552, -99.56700, -4.03650, 0.29900,
8700, 591.00000, -142.00000, 2083.00000, -9.66034, -150.20142, 14.00757, -99.56700, -4.03650, 0.29900,
8710, 747.00000, -161.00000, 2021.00000, -1.17645, -143.54858, 14.31274, -99.56700, -4.03650, 0.29900,
8719, 871.00000, -95.00000, 1982.00000, 8.22296, -122.55249, 14.49585, -99.56700, -4.03650, 0.29900,
8788, 819.00000, -87.00000, 1932.00000, 0.22736, 51.27563, -3.20435, -100.01550, -8.67100, -3.58800,
8803, 785.00000, -68.00000, 2003.00000, 0.34943, 69.28101, -3.69263, -100.01550, -8.67100, -3.58800,
8811, 700.00000, -66.00000, 1992.00000, -3.37372, 79.29077, -4.05884, -100.01550, -8.67100, -3.58800,
8821, 608.00000, -98.00000, 2004.00000, -6.54755, 83.80737, -4.18091, -100.01550, -8.67100, -3.58800,
8829, 169.00000, -68.00000, 2057.00000, 0.53253, 5.13306, 0.94604, -100.01550, -8.67100, -3.58800,
8869, 291.00000, -100.00000, 2075.00000, 2.05841, -23.24829, 3.20435, -100.01550, -8.67100, -3.58800,
8879, 473.00000, -75.00000, 2037.00000, 3.15704, -41.31470, 5.70679, -100.01550, -8.67100, -3.58800,
8913, 679.00000, -78.00000, 1990.00000, 1.32599, 14.10522, -1.06812, -96.72650, -6.87700, -5.08300,
8953, 630.00000, -82.00000, 1999.00000, 1.32599, 21.91772, -1.43433, -96.72650, -6.87700, -5.08300,
8993, 510.00000, -77.00000, 2026.00000, 1.50909, -9.33228, 0.70190, -101.36100, -4.78400, 0.59800,
9033, 559.00000, -79.00000, 2017.00000, 0.89874, -10.98022, 0.33569, -101.36100, -4.78400, 0.59800,
9073, 588.00000, -84.00000, 2010.00000, 1.26495, -0.54321, -0.09155, -99.26800, -7.62450, 0.14950,
9113, 560.00000, -80.00000, 2018.00000, 1.87531, 6.23169, -0.09155, -102.40750, -5.98000, 1.04650,
9153, 529.00000, -78.00000, 2022.00000, 1.14288, -1.82495, -0.09155, -99.71650, -2.69100, -0.44850,
9193, 570.00000, -80.00000, 2017.00000, 1.26495, -3.35083, 0.09155, -101.66000, -5.53150, 0.59800,
9233, 565.00000, -78.00000, 2015.00000, 1.57013, 3.66821, -0.09155, -101.66000, -5.53150, 0.59800,
9273, 532.00000, -78.00000, 2022.00000, 1.38702, -0.72632, -0.09155, -101.51050, -3.13950, -1.49500,
9279, 541.00000, -79.00000, 2021.00000, 1.26495, -2.31323, 0.03052, -101.51050, -3.13950, -1.49500,
9319, 573.00000, -80.00000, 2016.00000, 1.44806, -1.64185, 0.15259, -101.51050, -3.13950, -1.49500,
9359, 557.00000, -80.00000, 2015.00000, 1.44806, 2.26440, -0.03052, -100.76300, -4.18600, 0.74750,
9399, 545.00000, -79.00000, 2022.00000, 1.38702, -0.60425, 0.03052, -100.76300, -4.18600, -0.14950,
9439, 558.00000, -79.00000, 2020.00000, 1.32599, -0.29907, -0.09155, -100.76300, -4.93350, 0.74750,
9479, 552.00000, -80.00000, 2019.00000, 1.38702, 0.18921, -0.03052, -100.76300, -4.93350, 0.74750,
9519, 558.00000, -80.00000, 2015.00000, 1.32599, -0.42114, -0.03052, -100.01550, -4.18600, 0.74750,
9559, 558.00000, -81.00000, 2015.00000, 1.38702, -0.54321, 0.03052, -103.15500, -4.03650, -0.29900,
9599, 568.00000, -79.00000, 2014.00000, 1.38702, -0.29907, 0.03052, -102.25800, -5.68100, 1.49500,
9639, 558.00000, -78.00000, 2021.00000, 1.38702, 0.79956, -0.09155, -101.36100, -3.28900, -0.59800,
9679, 553.00000, -80.00000, 2019.00000, 1.38702, 0.43335, -0.03052, -101.36100, -3.28900, -0.59800,
9719, 545.00000, -77.00000, 2021.00000, 1.26495, -0.05493, 0.03052, -101.36100, -3.28900, -0.59800,
9764, 560.00000, -82.00000, 2015.00000, 1.32599, -0.54321, 0.03052, -101.36100, -3.28900, -0.59800,
9804, 560.00000, -77.00000, 2014.00000, 1.38702, -0.17700, -0.03052, -101.51050, -6.87700, 0.44850,
9844, 563.00000, -82.00000, 2016.00000, 1.38702, -0.23804, -0.03052, -101.36100, -4.48500, 0.00000,
9884, 563.00000, -76.00000, 2021.00000, 1.44806, -0.05493, 0.09155, -101.06200, -4.63450, 0.14950,
9924, 555.00000, -76.00000, 2019.00000, 1.38702, 0.79956, -0.09155, -101.06200, -4.63450, 0.14950,
9964, 551.00000, -79.00000, 2017.00000, 1.32599, -0.42114, 0.03052, -100.16500, -2.99000, -0.59800,
10012, 553.00000, -81.00000, 2023.00000, 1.38702, 0.06714, -0.09155, -101.80950, -6.12950, -1.49500,
10024, 553.00000, -79.00000, 2012.00000, 1.32599, -0.11597, -0.03052, -101.80950, -6.12950, -1.49500,
10032, 554.00000, -78.00000, 2021.00000, 1.38702, -0.48218, 0.03052, -99.71650, -6.42850, -1.49500,
10072, 565.00000, -80.00000, 2013.00000, 1.44806, -0.42114, -0.03052, -99.71650, -6.42850, -1.49500,
10078, 564.00000, -78.00000, 2017.00000, 1.38702, -0.05493, -0.03052, -98.96900, -2.39200, -1.49500,
10088, 560.00000, -82.00000, 2013.00000, 1.38702, 0.12817, -0.09155, -98.96900, -2.39200, -1.49500,
10128, 561.00000, -78.00000, 2020.00000, 1.44806, -0.05493, -0.09155, -98.96900, -2.39200, -1.49500,
10137, 559.00000, -79.00000, 2020.00000, 1.38702, 0.12817, -0.03052, -98.96900, -2.39200, -1.49500,
10177, 550.00000, -80.00000, 2018.00000, 1.38702, 0.37231, -0.03052, -98.96900, -2.39200, -1.49500,
10217, 561.00000, -81.00000, 2014.00000, 1.38702, -0.72632, 0.03052, -98.96900, -2.39200, -1.49500,
10262, 557.00000, -83.00000, 2018.00000, 1.38702, 0.49438, -0.09155, -100.46400, -3.43850, -0.44850,
10280, 555.00000, -81.00000, 2018.00000, 1.38702, 0.18921, -0.09155, -99.56700, -5.23250, -0.29900,
10320, 561.00000, -82.00000, 2017.00000, 1.38702, -0.60425, 0.03052, -99.56700, -5.23250, -0.29900,
10360, 560.00000, -78.00000, 2018.00000, 1.38702, -0.17700, 0.09155, -100.76300, -4.63450, -0.44850,
10367, 560.00000, -79.00000, 2018.00000, 1.38702, 0.06714, 0.03052, -100.76300, -4.63450, -0.44850,
10407, 560.00000, -75.00000, 2018.00000, 1.44806, 0.61646, -0.03052, -99.71650, -4.93350, -1.49500,
10447, 550.00000, -79.00000, 2019.00000, 1.38702, 0.06714, -0.03052, -102.25800, -6.12950, -0.74750,
10456, 556.00000, -79.00000, 2016.00000, 1.38702, -0.42114, -0.03052, -102.25800, -6.12950, -0.74750,
10465, 557.00000, -79.00000, 2019.00000, 1.38702, -0.72632, 0.03052, -102.25800, -6.12950, -0.74750,
10474, 559.00000, -81.00000, 2019.00000, 1.32599, -0.90942, 0.03052, -99.86600, -3.73750, -3.13950,
10514, 565.00000, -78.00000, 2015.00000, 1.32599, -0.29907, -0.03052, -99.86600, -3.73750, -3.13950,
10536, 564.00000, -78.00000, 2018.00000, 1.32599, 0.12817, 0.03052, -98.96900, -5.68100, -0.14950,
10576, 561.00000, -78.00000, 2017.00000, 1.38702, -0.05493, 0.03052, -98.96900, -5.68100, -0.14950,
10616, 559.00000, -82.00000, 2016.00000, 1.32599, 0.18921, -0.03052, -98.96900, -5.68100, -0.14950,
10656, 553.00000, -83.00000, 2015.00000, 1.38702, 0.00610, -0.03052, -98.96900, -5.68100, -0.14950,
10696, 558.00000, -75.00000, 2020.00000, 1.38702, -0.11597, -0.03052, -99.86600, -5.98000, -2.39200,
10702, 559.00000, -73.00000, 2019.00000, 1.38702, 0.00610, 0.03052, -99.86600, -5.98000, -2.39200,
10742, 561.00000, -80.00000, 2018.00000, 1.38702, -0.42114, -0.03052, -99.56700, -3.28900, -1.64450,
10749, 564.00000, -77.00000, 2020.00000, 1.38702, -0.29907, 0.03052, -97.62350, -5.98000, -0.59800,
10789, 564.00000, -79.00000, 2016.00000, 1.32599, 0.06714, -0.03052, -97.62350, -5.98000, -0.59800,
10829, 562.00000, -79.00000, 2016.00000, 1.32599, 0.06714, 0.03052, -100.16500, -5.98000, 1.64450,
10869, 558.00000, -82.00000, 2020.00000, 1.38702, 0.18921, -0.03052, -101.51050, -4.18600, -0.44850,
10879, 557.00000, -77.00000, 2018.00000, 1.44806, 0.25024, -0.09155, -101.51050, -4.18600, -0.44850,
10887, 558.00000, -79.00000, 2017.00000, 1.38702, 0.31128, -0.09155, -101.51050, -4.18600, -0.44850,
10898, 557.00000, -80.00000, 2017.00000, 1.44806, 0.18921, -0.03052, -101.51050, -4.18600, -0.44850,
10905, 558.00000, -81.00000, 2016.00000, 1.38702, 0.12817, -0.03052, -101.51050, -4.18600, -0.44850,
10916, 561.00000, -84.00000, 2018.00000, 1.38702, -0.05493, -0.03052, -100.91250, -5.53150, -1.04650,
10927, 558.00000, -78.00000, 2019.00000, 1.38702, -0.29907, 0.03052, -100.91250, -5.53150, -1.04650,
10936, 558.00000, -81.00000, 2018.00000, 1.32599, -0.36011, -0.03052, -100.91250, -5.53150, -1.04650,
10945, 562.00000, -78.00000, 2017.00000, 1.38702, -0.42114, 0.03052, -100.91250, -5.53150, -1.04650,
10954, 562.00000, -80.00000, 2015.00000, 1.38702, -0.36011, 0.09155, -100.91250, -5.53150, -1.04650,
10963, 563.00000, -76.00000, 2017.00000, 1.38702, -0.29907, 0.09155, -100.91250, -5.53150, -1.04650,
10974, 561.00000, -77.00000, 2017.00000, 1.26495, -0.29907, -0.03052, -100.91250, -5.53150, -1.04650,
10985, 561.00000, -78.00000, 2018.00000, 1.26495, -0.29907, -0.03052, -100.91250, -5.53150, -1.04650,
10993, 562.00000, -79.00000, 2015.00000, 1.20392, -0.29907, -0.03052, -100.91250, -5.53150, -1.04650,
11003, 566.00000, -81.00000, 2016.00000, 1.38702, -0.17700, 0.03052, -100.91250, -5.53150, -1.04650,
11032, 564.00000, -80.00000, 2016.00000, 1.44806, -0.05493, 0.03052, -100.91250, -5.53150, -1.04650,
11048, 564.00000, -82.00000, 2015.00000, 1.44806, 0.18921, -0.09155, -100.91250, -5.53150, -1.04650,
11055, 561.00000, -80.00000, 2014.00000, 1.38702, 0.37231, -0.03052, -100.91250, -5.53150, -1.04650,
11064, 560.00000, -82.00000, 2016.00000, 1.38702, 0.37231, -0.03052, -98.52050, -5.68100, -0.14950,
11104, 554.00000, -77.00000, 2014.00000, 1.38702, 0.18921, -0.03052, -98.52050, -5.68100, -0.14950,
11144, 559.00000, -79.00000, 2017.00000, 1.38702, -0.17700, 0.03052, -98.96900, -5.68100, -2.54150,
11184, 565.00000, -75.00000, 2019.00000, 1.44806, -0.42114, -0.03052, -101.06200, -3.88700, -0.44850,
11190, 564.00000, -75.00000, 2016.00000, 1.38702, -0.42114, 0.03052, -101.06200, -3.88700, -0.44850,
11200, 565.00000, -79.00000, 2016.00000, 1.44806, -0.42114, 0.03052, -101.06200, -3.88700, -0.44850,
11208, 566.00000, -77.00000, 2015.00000, 1.32599, -0.29907, 0.03052, -97.92250, -5.38200, -3.28900,
11248, 564.00000, -80.00000, 2017.00000, 1.38702, 0.18921, -0.03052, -97.92250, -5.38200, -3.28900,
11288, 561.00000, -82.00000, 2014.00000, 1.44806, 0.31128, -0.09155, -100.76300, -4.18600, -1.49500,
11304, 559.00000, -80.00000, 2011.00000, 1.38702, 0.25024, -0.03052, -100.76300, -4.18600, -1.49500,
11311, 557.00000, -79.00000, 2014.00000, 1.32599, 0.12817, 0.03052, -100.16500, -5.23250, -1.34550,
11351, 559.00000, -78.00000, 2014.00000, 1.38702, -0.17700, 0.03052, -100.16500, -5.23250, -1.34550,
11358, 558.00000, -79.00000, 2016.00000, 1.32599, -0.23804, -0.03052, -99.56700, -4.78400, 0.00000,
11398, 564.00000, -79.00000, 2015.00000, 1.44806, -0.29907, -0.03052, -99.56700, -4.78400, 0.00000,
11438, 563.00000, -80.00000, 2013.00000, 1.32599, 0.06714, -0.15259, -99.56700, -4.78400, 0.00000,
11478, 559.00000, -83.00000, 2012.00000, 1.32599, 0.12817, -0.09155, -99.56700, -4.78400, 0.00000,
11528, 560.00000, -81.00000, 2017.00000, 1.38702, -0.05493, 0.03052, -101.36100, -5.23250, 1.64450,
11568, 559.00000, -81.00000, 2016.00000, 1.32599, 0.00610, -0.03052, -100.61349, -4.78400, 0.00000,
11608, 560.00000, -83.00000, 2017.00000, 1.38702, -0.05493, -0.03052, -102.25800, -4.63450, -0.14950,
11615, 562.00000, -79.00000, 2017.00000, 1.26495, -0.17700, -0.03052, -102.25800, -4.63450, -0.14950,
11623, 561.00000, -81.00000, 2015.00000, 1.26495, -0.23804, -0.03052, -102.25800, -4.63450, -0.14950,
11634, 562.00000, -80.00000, 2016.00000, 1.32599, -0.29907, -0.03052, -102.25800, -4.63450, -0.14950,
11641, 562.00000, -81.00000, 2011.00000, 1.32599, -0.17700, -0.09155, -102.25800, -4.63450, -0.14950,
11654, 566.00000, -78.00000, 2017.00000, 1.38702, -0.11597, -0.03052, -101.36100, -4.78400, -1.04650,
11663, 564.00000, -79.00000, 2018.00000, 1.32599, 0.00610, -0.09155, -101.36100, -4.78400, -1.04650,
11672, 564.00000, -80.00000, 2019.00000, 1.38702, 0.00610, -0.03052, -101.36100, -4.78400, -1.04650,
11681, 563.00000, -77.00000, 2016.00000, 1.38702, 0.00610, 0.03052, -101.36100, -4.78400, -1.04650,
11721, 559.00000, -82.00000, 2020.00000, 1.38702, 0.06714, -0.03052, -100.16500, -3.73750, 1.04650,
11777, 559.00000, -83.00000, 2014.00000, 1.32599, 0.00610, 0.03052, -101.95900, -5.23250, 0.00000,
11817, 561.00000, -80.00000, 2014.00000, 1.38702, -0.11597, -0.03052, -103.00550, -3.13950, -0.74750,
11823, 563.00000, -79.00000, 2016.00000, 1.38702, -0.11597, -0.03052, -103.00550, -3.13950, -0.74750,
11830, 563.00000, -78.00000, 2016.00000, 1.38702, -0.05493, -0.09155, -103.00550, -3.13950, -0.74750,
11838, 565.00000, -80.00000, 2013.00000, 1.32599, -0.05493, -0.03052, -103.00550, -3.13950, -0.74750,
11849, 564.00000, -80.00000, 2016.00000, 1.32599, -0.17700, 0.03052, -103.00550, -3.13950, -0.74750,
11881, 563.00000, -79.00000, 2016.00000, 1.44806, 0.00610, 0.09155, -103.00550, -3.13950, -0.74750,
11921, 560.00000, -80.00000, 2015.00000, 1.38702, 0.18921, 0.03052, -103.00550, -3.13950, -0.74750,
11961, 563.00000, -76.00000, 2013.00000, 1.32599, 0.12817, 0.03052, -101.80950, -4.93350, 0.74750,
12001, 559.00000, -81.00000, 2016.00000, 1.44806, 0.31128, -0.03052, -101.06200, -4.93350, -0.14950,
12034, 564.00000, -76.00000, 2017.00000, 1.44806, -0.23804, -0.03052, -96.57700, -6.72750, -3.43850,
12114, 563.00000, -79.00000, 2017.00000, 1.44806, 0.37231, 0.03052, -96.57700, -6.72750, -3.43850,
12154, 564.00000, -77.00000, 2017.00000, 1.38702, 0.37231, -0.03052, -99.26800, -7.62450, -2.54150,
12194, 561.00000, -77.00000, 2015.00000, 1.26495, -0.42114, 0.03052, -97.32450, -5.23250, -2.09300,
12234, 567.00000, -78.00000, 2017.00000, 1.44806, -0.36011, 0.03052, -97.02550, -7.77400, -2.84050,
12274, 561.00000, -79.00000, 2016.00000, 1.38702, 0.67749, -0.09155, -97.02550, -7.77400, -2.84050,
12354, 566.00000, -77.00000, 2014.00000, 1.32599, -0.36011, -0.03052, -97.02550, -7.77400, -2.84050,
12390, 562.00000, -77.00000, 2012.00000, 1.32599, -0.42114, -0.03052, -97.02550, -7.77400, -2.84050,
12399, 567.00000, -79.00000, 2015.00000, 1.44806, -0.17700, 0.03052, -100.76300, -5.38200, 0.74750,
12439, 566.00000, -80.00000, 2013.00000, 1.38702, 0.31128, 0.03052, -95.82950, -8.22250, -1.64450,
12479, 561.00000, -81.00000, 2019.00000, 1.38702, 0.06714, -0.03052, -96.42750, -6.87700, -3.58800,
12519, 563.00000, -79.00000, 2016.00000, 1.38702, -0.23804, -0.03052, -96.42750, -6.87700, -3.58800,
12526, 569.00000, -77.00000, 2017.00000, 1.32599, -0.78735, 0.03052, -95.08200, -8.22250, -3.88700,
12604, 558.00000, -78.00000, 2018.00000, 1.38702, 1.34888, -0.03052, -98.07200, -7.47500, -3.43850,
12644, 555.00000, -80.00000, 2019.00000, 1.26495, -0.17700, -0.03052, -98.81950, -4.78400, -1.34550,
12679, 557.00000, -79.00000, 2018.00000, 1.38702, -1.21460, 0.03052, -98.81950, -4.78400, -1.34550,
12719, 574.00000, -77.00000, 2011.00000, 1.38702, -2.37427, 0.09155, -99.86600, -5.53150, 0.29900,
12759, 578.00000, -77.00000, 2012.00000, 1.32599, 0.43335, -0.03052, -99.86600, -5.53150, 0.29900,
12799, 558.00000, -84.00000, 2017.00000, 1.44806, 1.71509, -0.03052, -99.86600, -5.53150, 0.29900,
12853, 556.00000, -77.00000, 2020.00000, 1.32599, -0.60425, -0.03052, -96.57700, -6.27900, -5.68100,
12864, 558.00000, -80.00000, 2017.00000, 1.32599, -1.03149, -0.03052, -96.57700, -6.27900, -5.68100,
12900, 575.00000, -82.00000, 2010.00000, 1.32599, -0.05493, -0.03052, -95.68000, -6.87700, -4.33550,
12935, 575.00000, -78.00000, 2014.00000, 1.32599, 0.25024, -0.03052, -100.16500, -6.72750, -3.43850,
12946, 571.00000, -79.00000, 2012.00000, 1.32599, 0.49438, -0.03052, -100.16500, -6.72750, -3.43850,
12953, 567.00000, -77.00000, 2014.00000, 1.38702, 0.61646, -0.09155, -100.16500, -6.72750, -3.43850,
12989, 563.00000, -78.00000, 2014.00000, 1.38702, 0.61646, -0.03052, -99.86600, -6.27900, -1.34550,
13029, 553.00000, -79.00000, 2015.00000, 1.32599, 0.86060, -0.15259, -99.86600, -6.27900, -1.34550,
13078, 564.00000, -78.00000, 2017.00000, 1.38702, -1.03149, 0.09155, -98.37099, -5.98000, -3.88700,
13118, 568.00000, -80.00000, 2009.00000, 1.32599, -0.66528, -0.03052, -100.01550, -4.63450, -0.74750,
13124, 572.00000, -76.00000, 2012.00000, 1.32599, -0.48218, -0.03052, -100.01550, -4.63450, -0.74750,
13135, 573.00000, -83.00000, 2014.00000, 1.32599, -0.36011, -0.03052, -100.16500, -4.78400, -0.29900,
13146, 574.00000, -80.00000, 2011.00000, 1.32599, -0.05493, 0.03052, -100.16500, -4.78400, -0.29900,
13155, 574.00000, -80.00000, 2006.00000, 1.38702, 0.06714, -0.03052, -100.16500, -4.78400, -0.29900,
13164, 575.00000, -78.00000, 2010.00000, 1.44806, 0.31128, 0.03052, -100.16500, -4.78400, -0.29900,
13204, 566.00000, -78.00000, 2020.00000, 1.50909, 0.43335, -0.03052, -100.16500, -4.78400, -0.29900,
13211, 566.00000, -77.00000, 2017.00000, 1.44806, 0.31128, -0.03052, -100.16500, -4.78400, -0.29900,
13222, 566.00000, -80.00000, 2017.00000, 1.50909, 0.00610, 0.03052, -100.16500, -4.78400, -0.29900,
13262, 566.00000, -79.00000, 2015.00000, 1.32599, 0.25024, -0.03052, -100.76300, -4.18600, -1.94350,
13268, 562.00000, -78.00000, 2013.00000, 1.44806, 0.49438, 0.03052, -100.76300, -4.18600, -1.94350,
13308, 551.00000, -80.00000, 2019.00000, 1.50909, 0.55542, -0.03052, -100.01550, -6.12950, -0.14950,
13314, 565.00000, -77.00000, 2014.00000, 1.20392, -0.84839, -0.09155, -100.01550, -4.18600, -2.99000,
13372, 575.00000, -76.00000, 2011.00000, 1.32599, -1.39771, -0.03052, -97.17500, -6.42850, -3.58800,
13407, 578.00000, -80.00000, 2011.00000, 1.38702, -1.33667, 0.03052, -97.17500, -6.42850, -3.58800,
13447, 577.00000, -81.00000, 2014.00000, 1.38702, 0.86060, -0.09155, -100.01550, -6.12950, -0.74750,
13453, 574.00000, -77.00000, 2018.00000, 1.50909, 1.28784, -0.03052, -100.01550, -6.12950, -0.74750,
13464, 568.00000, -75.00000, 2010.00000, 1.32599, 1.47095, -0.15259, -100.01550, -6.12950, -0.74750,
13475, 558.00000, -83.00000, 2018.00000, 1.38702, 0.73853, -0.03052, -98.22150, -5.38200, -0.74750,
13515, 554.00000, -87.00000, 2016.00000, 1.44806, 0.67749, -0.03052, -98.22150, -5.38200, -0.74750,
13555, 550.00000, -84.00000, 2013.00000, 1.38702, -0.48218, -0.03052, -101.51050, -4.63450, -0.14950,
13561, 557.00000, -77.00000, 2014.00000, 1.44806, -0.97046, -0.03052, -101.51050, -4.63450, -0.14950,
13572, 567.00000, -82.00000, 2016.00000, 1.26495, -1.03149, -0.03052, -101.51050, -4.63450, -0.14950,
13604, 568.00000, -77.00000, 2015.00000, 1.38702, -0.78735, -0.03052, -101.51050, -4.63450, -0.14950,
13613, 568.00000, -78.00000, 2012.00000, 1.32599, -0.66528, -0.09155, -101.51050, -4.63450, -0.14950,
13622, 574.00000, -77.00000, 2013.00000, 1.38702, -0.48218, -0.03052, -101.51050, -4.63450, -0.14950,
13632, 575.00000, -82.00000, 2010.00000, 1.32599, -0.42114, -0.03052, -101.51050, -4.63450, -0.14950,
13641, 577.00000, -82.00000, 2013.00000, 1.38702, -0.29907, -0.03052, -101.51050, -4.63450, -0.14950,
13652, 580.00000, -80.00000, 2010.00000, 1.26495, -0.11597, -0.03052, -101.51050, -4.63450, -0.14950,
13662, 577.00000, -79.00000, 2011.00000, 1.38702, -0.11597, 0.03052, -101.51050, -4.63450, -0.14950,
13670, 575.00000, -80.00000, 2009.00000, 1.38702, -0.05493, -0.03052, -101.51050, -4.63450, -0.14950,
13681, 578.00000, -79.00000, 2012.00000, 1.44806, 0.12817, -0.03052, -100.46400, -4.93350, -2.24250,
13689, 577.00000, -76.00000, 2011.00000, 1.44806, 0.31128, -0.03052, -100.46400, -4.93350, -2.24250,
13701, 571.00000, -80.00000, 2012.00000, 1.44806, 0.55542, -0.03052, -100.46400, -4.93350, -2.24250,
13711, 568.00000, -77.00000, 2015.00000, 1.38702, 0.86060, -0.09155, -100.46400, -4.93350, -2.24250,
13720, 567.00000, -82.00000, 2014.00000, 1.44806, 1.10474, -0.15259, -100.46400, -4.93350, -2.24250,
13729, 560.00000, -77.00000, 2015.00000, 1.44806, 1.16577, -0.15259, -99.26800, -5.38200, -0.44850,
13769, 557.00000, -79.00000, 2018.00000, 1.57013, 0.25024, 0.09155, -99.26800, -5.38200, -0.44850,
13809, 555.00000, -75.00000, 2020.00000, 1.38702, -0.23804, -0.03052, -99.71650, -4.63450, -0.74750,
13815, 557.00000, -77.00000, 2014.00000, 1.26495, -0.48218, -0.03052, -99.71650, -4.63450, -0.74750,
13826, 569.00000, -77.00000, 2015.00000, 1.38702, -1.15356, 0.09155, -100.46400, -4.18600, 0.14950,
13866, 573.00000, -79.00000, 2012.00000, 1.32599, -1.03149, 0.03052, -100.46400, -4.18600, 0.14950,
13906, 580.00000, -78.00000, 2006.00000, 1.32599, -0.11597, -0.03052, -100.76300, -4.63450, -1.94350,
13915, 580.00000, -76.00000, 2009.00000, 1.38702, 0.25024, -0.03052, -100.76300, -4.63450, -1.94350,
13924, 574.00000, -76.00000, 2011.00000, 1.32599, 0.55542, -0.09155, -99.11850, -4.78400, -1.64450,
13964, 565.00000, -79.00000, 2013.00000, 1.32599, 1.10474, -0.09155, -99.11850, -4.78400, -1.64450,
14004, 554.00000, -74.00000, 2016.00000, 1.38702, 0.55542, -0.03052, -100.46400, -5.68100, -1.19600,
14011, 551.00000, -78.00000, 2018.00000, 1.38702, 0.18921, 0.03052, -100.46400, -5.68100, -1.19600,
14051, 558.00000, -82.00000, 2019.00000, 1.38702, -0.48218, 0.03052, -100.46400, -5.68100, -1.19600,
14058, 563.00000, -80.00000, 2019.00000, 1.38702, -0.42114, 0.09155, -100.46400, -5.68100, -1.19600,
14066, 565.00000, -83.00000, 2014.00000, 1.38702, -0.60425, -0.03052, -100.46400, -5.68100, -1.19600,
14077, 574.00000, -82.00000, 2011.00000, 1.38702, -1.15356, 0.03052, -100.46400, -5.68100, -1.19600,
14105, 576.00000, -80.00000, 2012.00000, 1.38702, -0.97046, 0.03052, -100.46400, -5.68100, -1.19600,
14120, 578.00000, -81.00000, 2014.00000, 1.44806, -0.48218, 0.03052, -100.46400, -5.68100, -1.19600,
14127, 573.00000, -80.00000, 2013.00000, 1.32599, 0.00610, -0.03052, -99.86600, -5.98000, -1.34550,
14167, 579.00000, -77.00000, 2010.00000, 1.38702, -0.11597, 0.03052, -99.86600, -5.98000, -1.34550,
14207, 570.00000, -81.00000, 2013.00000, 1.38702, 0.86060, -0.09155, -99.86600, -3.28900, -1.34550,
14247, 557.00000, -75.00000, 2016.00000, 1.38702, 0.61646, -0.09155, -101.36100, -5.23250, 0.00000,
14287, 560.00000, -78.00000, 2023.00000, 1.38702, 0.00610, 0.03052, -101.51050, -5.38200, 0.74750,
14327, 570.00000, -84.00000, 2012.00000, 1.38702, -1.09253, 0.09155, -100.61349, -4.78400, 0.29900,
14367, 576.00000, -82.00000, 2011.00000, 1.44806, -0.60425, -0.03052, -100.61349, -4.78400, 0.29900,
14376, 577.00000, -78.00000, 2010.00000, 1.44806, -0.23804, 0.03052, -100.46400, -5.38200, 0.14950,
14416, 569.00000, -75.00000, 2014.00000, 1.44806, 1.04370, 0.03052, -100.46400, -5.38200, 0.14950,
14456, 558.00000, -79.00000, 2015.00000, 1.38702, 0.37231, -0.03052, -100.01550, -6.42850, -0.74750,
14462, 558.00000, -83.00000, 2012.00000, 1.26495, -0.05493, -0.09155, -100.01550, -6.42850, -0.74750,
14471, 561.00000, -82.00000, 2018.00000, 1.32599, -0.42114, -0.03052, -100.01550, -6.42850, -0.74750,
14481, 559.00000, -80.00000, 2013.00000, 1.26495, -0.42114, -0.03052, -100.01550, -6.42850, -0.74750,
14490, 561.00000, -81.00000, 2016.00000, 1.38702, -0.36011, -0.03052, -100.01550, -6.42850, -0.74750,
14501, 562.00000, -78.00000, 2015.00000, 1.26495, -0.17700, -0.03052, -100.01550, -6.42850, -0.74750,
14512, 565.00000, -76.00000, 2019.00000, 1.44806, -0.11597, -0.03052, -100.01550, -6.42850, -0.74750,
14520, 567.00000, -73.00000, 2020.00000, 1.38702, -0.11597, -0.03052, -100.01550, -6.42850, -0.74750,
14530, 568.00000, -76.00000, 2019.00000, 1.44806, -0.36011, 0.03052, -100.01550, -6.42850, -0.74750,
14538, 570.00000, -75.00000, 2015.00000, 1.38702, -0.48218, -0.03052, -100.01550, -6.42850, -0.74750,
14551, 574.00000, -78.00000, 2011.00000, 1.38702, -0.42114, -0.03052, -100.01550, -6.42850, -0.74750,
14560, 574.00000, -78.00000, 2012.00000, 1.26495, -0.11597, -0.03052, -100.01550, -6.42850, -0.74750,
14569, 570.00000, -82.00000, 2013.00000, 1.32599, 0.06714, -0.09155, -100.76300, -8.37200, -0.14950,
14579, 564.00000, -82.00000, 2010.00000, 1.26495, 0.06714, -0.03052, -100.76300, -8.37200, -0.14950,
14607, 564.00000, -84.00000, 2010.00000, 1.26495, -0.17700, -0.03052, -100.76300, -8.37200, -0.14950,
14619, 569.00000, -82.00000, 2016.00000, 1.44806, -0.42114, 0.03052, -99.11850, -4.78400, -2.39200,
14659, 568.00000, -75.00000, 2013.00000, 1.50909, 0.55542, 0.03052, -99.11850, -4.78400, -2.39200,
14699, 562.00000, -79.00000, 2018.00000, 1.38702, 0.18921, -0.03052, -98.81950, -6.27900, 0.00000,
14739, 567.00000, -84.00000, 2013.00000, 1.44806, -0.36011, 0.03052, -101.36100, -4.03650, -1.34550,
14746, 567.00000, -76.00000, 2016.00000, 1.38702, -0.11597, -0.03052, -101.36100, -4.03650, -1.34550,
14757, 566.00000, -79.00000, 2017.00000, 1.38702, 0.25024, -0.09155, -101.36100, -4.03650, -1.34550,
14767, 566.00000, -77.00000, 2020.00000, 1.38702, 0.37231, -0.03052, -99.71650, -6.87700, -1.19600,
14807, 571.00000, -77.00000, 2014.00000, 1.38702, -0.90942, -0.03052, -99.71650, -6.87700, -1.19600,
14813, 575.00000, -77.00000, 2010.00000, 1.26495, -0.90942, -0.03052, -98.81950, -5.98000, -2.39200,
14822, 579.00000, -81.00000, 2014.00000, 1.32599, -0.66528, 0.03052, -98.81950, -5.98000, -2.39200,
14862, 570.00000, -84.00000, 2011.00000, 1.32599, 0.61646, -0.15259, -98.81950, -5.98000, -2.39200,
14902, 561.00000, -78.00000, 2017.00000, 1.32599, 0.43335, 0.03052, -100.76300, -3.43850, -0.74750,
14942, 559.00000, -79.00000, 2012.00000, 1.20392, -0.29907, -0.09155, -100.76300, -3.43850, -0.74750,
14949, 560.00000, -80.00000, 2016.00000, 1.26495, -0.66528, 0.03052, -100.76300, -3.43850, -0.74750,
14957, 563.00000, -80.00000, 2016.00000, 1.20392, -0.78735, -0.03052, -100.76300, -3.43850, -0.74750,
14970, 566.00000, -84.00000, 2018.00000, 1.32599, -0.84839, 0.03052, -100.76300, -3.43850, -0.74750,
14979, 571.00000, -78.00000, 2015.00000, 1.26495, -0.72632, 0.09155, -100.76300, -3.43850, -0.74750,
14988, 568.00000, -82.00000, 2009.00000, 1.32599, -0.60425, 0.03052, -100.76300, -3.43850, -0.74750,
14998, 570.00000, -77.00000, 2016.00000, 1.38702, -0.36011, -0.03052, -100.76300, -3.43850, -0.74750,
15007, 573.00000, -81.00000, 2010.00000, 1.32599, -0.11597, -0.03052, -100.76300, -3.43850, -0.74750,
15019, 571.00000, -78.00000, 2012.00000, 1.32599, 0.31128, -0.03052, -99.26800, -6.42850, -1.94350,
15059, 564.00000, -79.00000, 2012.00000, 1.44806, 0.12817, 0.03052, -99.26800, -6.42850, -1.94350,
15104, 565.00000, -80.00000, 2014.00000, 1.32599, 0.55542, -0.03052, -101.36100, -4.03650, -1.64450,
15144, 560.00000, -81.00000, 2019.00000, 1.44806, 0.06714, -0.03052, -100.61349, -3.73750, -0.59800,
15151, 559.00000, -81.00000, 2016.00000, 1.32599, -0.36011, -0.09155, -100.61349, -3.73750, -0.59800,
15162, 565.00000, -79.00000, 2018.00000, 1.44806, -0.72632, 0.03052, -99.86600, -5.98000, -1.34550,
15202, 571.00000, -79.00000, 2009.00000, 1.38702, -0.36011, -0.03052, -99.86600, -5.98000, -1.34550,
15209, 572.00000, -79.00000, 2008.00000, 1.32599, 0.00610, -0.09155, -97.47400, -5.38200, -1.49500,
15249, 573.00000, -79.00000, 2020.00000, 1.50909, 0.18921, 0.03052, -97.47400, -5.38200, -1.49500,
15289, 569.00000, -77.00000, 2015.00000, 1.44806, 0.25024, -0.09155, -100.76300, -4.63450, -1.49500,
15297, 567.00000, -79.00000, 2013.00000, 1.26495, 0.31128, -0.15259, -100.76300, -4.63450, -1.49500,
15307, 564.00000, -82.00000, 2013.00000, 1.32599, 0.12817, -0.15259, -101.36100, -4.78400, -1.34550,
15315, 563.00000, -80.00000, 2017.00000, 1.32599, -0.11597, -0.09155, -101.36100, -4.78400, -1.34550,
15326, 564.00000, -81.00000, 2016.00000, 1.32599, -0.48218, -0.03052, -101.36100, -4.78400, -1.34550,
15334, 573.00000, -78.00000, 2016.00000, 1.38702, -0.17700, 0.03052, -101.36100, -4.78400, -1.34550,
15366, 574.00000, -76.00000, 2017.00000, 1.44806, 0.31128, -0.03052, -101.36100, -4.78400, -1.34550,
15400, 561.00000, -74.00000, 2015.00000, 1.38702, 1.10474, -0.15259, -101.36100, -4.78400, -1.34550,
15406, 559.00000, -76.00000, 2015.00000, 1.26495, 0.73853, -0.15259, -101.36100, -4.78400, -1.34550,
15415, 556.00000, -77.00000, 2015.00000, 1.32599, 0.06714, -0.09155, -101.36100, -4.78400, -1.34550,
15425, 558.00000, -79.00000, 2013.00000, 1.32599, -0.36011, -0.03052, -101.36100, -4.78400, -1.34550,
15437, 564.00000, -84.00000, 2016.00000, 1.38702, -0.97046, 0.03052, -101.36100, -4.78400, -1.34550,
15445, 569.00000, -83.00000, 2015.00000, 1.32599, -1.09253, 0.03052, -101.36100, -4.78400, -1.34550,
15456, 569.00000, -83.00000, 2015.00000, 1.38702, -1.03149, 0.03052, -99.11850, -5.23250, -2.09300,
15496, 572.00000, -78.00000, 2014.00000, 1.32599, 0.12817, -0.03052, -99.11850, -5.23250, -2.09300,
15536, 569.00000, -79.00000, 2013.00000, 1.32599, 0.43335, -0.03052, -100.76300, -3.88700, -2.24250,
15545, 571.00000, -77.00000, 2015.00000, 1.38702, 0.31128, 0.03052, -100.76300, -3.88700, -2.24250,
15606, 560.00000, -79.00000, 2018.00000, 1.44806, 0.25024, -0.09155, -98.96900, -5.38200, -1.49500,
15646, 566.00000, -78.00000, 2016.00000, 1.32599, -0.54321, -0.03052, -98.96900, -5.38200, -1.49500,
15656, 569.00000, -77.00000, 2016.00000, 1.20392, -0.54321, -0.09155, -97.62350, -4.48500, -2.09300,
15663, 570.00000, -77.00000, 2015.00000, 1.32599, -0.42114, -0.03052, -97.62350, -4.48500, -2.09300,
15674, 570.00000, -76.00000, 2012.00000, 1.26495, -0.29907, -0.09155, -97.62350, -4.48500, -2.09300,
15684, 571.00000, -79.00000, 2010.00000, 1.26495, -0.29907, -0.03052, -97.62350, -4.48500, -2.09300,
15693, 573.00000, -77.00000, 2011.00000, 1.32599, -0.23804, -0.03052, -97.62350, -4.48500, -2.09300,
15702, 575.00000, -80.00000, 2010.00000, 1.32599, -0.17700, -0.03052, -98.96900, -4.18600, -2.54150,
15712, 575.00000, -79.00000, 2014.00000, 1.44806, -0.17700, -0.03052, -98.96900, -4.18600, -2.54150,
15723, 573.00000, -77.00000, 2005.00000, 1.38702, 0.06714, -0.09155, -98.96900, -4.18600, -2.54150,
15763, 564.00000, -78.00000, 2018.00000, 1.38702, 0.92163, -0.09155, -100.61349, -4.48500, 1.04650,
15803, 563.00000, -79.00000, 2017.00000, 1.32599, -0.54321, 0.03052, -100.61349, -4.48500, 1.04650,
15855, 567.00000, -81.00000, 2013.00000, 1.32599, 0.43335, -0.09155, -100.61349, -4.48500, 1.04650,
15895, 565.00000, -76.00000, 2015.00000, 1.38702, -0.23804, 0.03052, -100.61349, -4.48500, 1.04650,
15935, 572.00000, -79.00000, 2014.00000, 1.26495, -0.05493, -0.03052, -100.76300, -3.13950, -0.14950,
15942, 567.00000, -79.00000, 2014.00000, 1.38702, 0.06714, -0.03052, -95.82950, -7.02650, -3.88700,
15982, 568.00000, -82.00000, 2015.00000, 1.38702, 0.18921, -0.03052, -96.42750, -6.42850, -3.28900,
16022, 570.00000, -80.00000, 2017.00000, 1.32599, 0.25024, -0.09155, -96.42750, -6.42850, -3.28900,
16062, 566.00000, -80.00000, 2011.00000, 1.38702, 0.00610, -0.03052, -100.16500, -5.23250, -0.29900,
16097, 572.00000, -76.00000, 2013.00000, 1.38702, -0.36011, -0.03052, -96.72650, -6.42850, -2.54150,
16176, 569.00000, -77.00000, 2014.00000, 1.44806, 0.12817, -0.03052, -96.72650, -6.87700, -2.99000,
16216, 568.00000, -80.00000, 2016.00000, 1.38702, 0.25024, -0.03052, -96.72650, -6.87700, -2.99000,
16256, 571.00000, -79.00000, 2018.00000, 1.32599, 0.18921, -0.09155, -96.72650, -6.87700, -2.99000,
16296, 567.00000, -78.00000, 2016.00000, 1.38702, 0.12817, 0.03052, -96.72650, -6.87700, -2.99000,
16336, 567.00000, -76.00000, 2014.00000, 1.38702, -0.11597, 0.03052, -96.42750, -6.42850, -2.54150,
16412, 570.00000, -79.00000, 2013.00000, 1.44806, 0.25024, -0.03052, -98.07200, -5.98000, -3.13950,
16452, 565.00000, -84.00000, 2013.00000, 1.44806, 0.12817, -0.03052, -97.47400, -5.68100, -4.33550,
16492, 567.00000, -80.00000, 2015.00000, 1.44806, 0.25024, -0.03052, -97.47400, -5.68100, -4.33550,
16532, 564.00000, -81.00000, 2011.00000, 1.38702, -0.42114, -0.03052, -97.47400, -7.62450, -3.58800,
16566, 569.00000, -81.00000, 2014.00000, 1.38702, 0.43335, -0.03052, -96.27800, -8.22250, -3.88700,
16606, 570.00000, -77.00000, 2015.00000, 1.32599, -0.42114, -0.09155, -96.27800, -8.22250, -3.88700,
16639, 572.00000, -81.00000, 2014.00000, 1.38702, 0.18921, -0.03052, -100.76300, -4.18600, -2.24250,
16721, 569.00000, -81.00000, 2014.00000, 1.38702, 0.25024, -0.09155, -100.76300, -4.18600, -2.24250,
16731, 566.00000, -78.00000, 2017.00000, 1.38702, 0.31128, -0.03052, -100.76300, -4.18600, -2.24250,
16774, 567.00000, -83.00000, 2014.00000, 1.44806, -0.05493, -0.03052, -100.76300, -4.18600, -2.24250,
16785, 572.00000, -79.00000, 2013.00000, 1.38702, -0.54321, 0.03052, -99.86600, -4.48500, 0.00000,
16825, 569.00000, -78.00000, 2015.00000, 1.38702, 0.37231, -0.03052, -96.57700, -7.77400, -3.13950,
16865, 569.00000, -79.00000, 2017.00000, 1.38702, 0.31128, -0.03052, -96.57700, -7.77400, -3.13950,
16908, 567.00000, -77.00000, 2013.00000, 1.26495, 0.25024, 0.03052, -101.95900, -4.48500, -1.34550,
16948, 564.00000, -76.00000, 2012.00000, 1.32599, 0.00610, -0.03052, -96.42750, -6.42850, -3.58800,
16988, 568.00000, -77.00000, 2014.00000, 1.38702, -0.17700, -0.03052, -102.40750, -5.23250, -1.34550,
16995, 570.00000, -77.00000, 2015.00000, 1.44806, -0.11597, -0.03052, -102.40750, -5.23250, -1.34550,
17003, 566.00000, -80.00000, 2012.00000, 1.38702, 0.12817, -0.09155, -102.40750, -5.23250, -1.34550,
17040, 567.00000, -77.00000, 2017.00000, 1.32599, 0.12817, -0.03052, -96.72650, -7.17600, -4.78400,
17080, 570.00000, -82.00000, 2010.00000, 1.44806, -0.17700, -0.03052, -96.72650, -7.17600, -4.78400,
17088, 569.00000, -78.00000, 2013.00000, 1.38702, -0.05493, -0.03052, -102.70650, -3.73750, -0.59800,
17098, 566.00000, -79.00000, 2014.00000, 1.38702, 0.12817, -0.03052, -102.70650, -3.73750, -0.59800,
17106, 569.00000, -78.00000, 2014.00000, 1.32599, 0.25024, -0.09155, -102.70650, -3.73750, -0.59800,
17116, 569.00000, -81.00000, 2012.00000, 1.38702, 0.25024, -0.03052, -102.70650, -3.73750, -0.59800,
17124, 566.00000, -80.00000, 2014.00000, 1.38702, 0.18921, -0.03052, -102.70650, -3.73750, -0.59800,
17136, 567.00000, -80.00000, 2013.00000, 1.44806, -0.05493, -0.09155, -102.70650, -3.73750, -0.59800,
17146, 572.00000, -80.00000, 2015.00000, 1.44806, -0.05493, -0.09155, -102.70650, -3.73750, -0.59800,
17175, 572.00000, -82.00000, 2013.00000, 1.44806, 0.06714, -0.09155, -102.70650, -3.73750, -0.59800,
17192, 568.00000, -77.00000, 2016.00000, 1.38702, 0.49438, -0.09155, -102.70650, -3.73750, -0.59800,
17198, 567.00000, -77.00000, 2018.00000, 1.32599, 0.49438, -0.09155, -102.70650, -3.73750, -0.59800,
17211, 564.00000, -75.00000, 2018.00000, 1.38702, 0.31128, -0.03052, -102.70650, -3.73750, -0.59800,
17219, 565.00000, -77.00000, 2015.00000, 1.44806, 0.12817, -0.03052, -102.70650, -3.73750, -0.59800,
17230, 564.00000, -77.00000, 2016.00000, 1.44806, -0.11597, -0.09155, -102.70650, -3.73750, -0.59800,
17238, 565.00000, -80.00000, 2016.00000, 1.38702, -0.23804, -0.03052, -98.37099, -5.23250, -2.84050,
17248, 568.00000, -78.00000, 2017.00000, 1.44806, -0.36011, -0.09155, -98.37099, -5.23250, -2.84050,
17259, 568.00000, -79.00000, 2013.00000, 1.32599, -0.36011, -0.09155, -98.37099, -5.23250, -2.84050,
17268, 570.00000, -83.00000, 2010.00000, 1.38702, -0.29907, -0.09155, -98.37099, -5.23250, -2.84050,
17277, 569.00000, -84.00000, 2012.00000, 1.38702, -0.11597, -0.09155, -98.37099, -5.23250, -2.84050,
17286, 568.00000, -82.00000, 2013.00000, 1.38702, 0.00610, -0.09155, -100.16500, -5.53150, -1.04650,
17296, 568.00000, -83.00000, 2013.00000, 1.38702, 0.06714, -0.03052, -100.16500, -5.53150, -1.04650,
17306, 568.00000, -82.00000, 2010.00000, 1.38702, 0.12817, -0.03052, -100.16500, -5.53150, -1.04650,
17317, 569.00000, -79.00000, 2013.00000, 1.32599, 0.12817, -0.03052, -100.16500, -5.53150, -1.04650,
17325, 567.00000, -79.00000, 2016.00000, 1.32599, 0.00610, -0.03052, -95.68000, -6.12950, -3.28900,
17365, 566.00000, -78.00000, 2014.00000, 1.32599, 0.12817, -0.03052, -95.68000, -6.12950, -3.28900,
17414, 570.00000, -81.00000, 2009.00000, 1.32599, 0.06714, 0.03052, -101.36100, -5.23250, 0.00000,
17454, 565.00000, -79.00000, 2016.00000, 1.38702, 0.18921, -0.09155, -100.76300, -4.63450, -2.54150,
17461, 566.00000, -76.00000, 2014.00000, 1.44806, 0.12817, -0.09155, -100.76300, -4.63450, -2.54150,
17469, 567.00000, -77.00000, 2013.00000, 1.32599, 0.06714, -0.09155, -100.76300, -4.63450, -2.54150,
17480, 566.00000, -77.00000, 2013.00000, 1.38702, -0.05493, -0.03052, -100.16500, -2.54150, -1.04650,
17488, 567.00000, -72.00000, 2014.00000, 1.32599, -0.11597, -0.03052, -100.16500, -2.54150, -1.04650,
17500, 566.00000, -76.00000, 2014.00000, 1.26495, -0.29907, -0.09155, -100.16500, -2.54150, -1.04650,
17509, 570.00000, -77.00000, 2016.00000, 1.32599, -0.29907, -0.09155, -100.16500, -2.54150, -1.04650,
17519, 568.00000, -80.00000, 2014.00000, 1.26495, -0.29907, -0.09155, -100.16500, -2.54150, -1.04650,
17528, 568.00000, -80.00000, 2015.00000, 1.32599, -0.29907, -0.03052, -101.66000, -4.78400, -1.04650,
17537, 570.00000, -78.00000, 2015.00000, 1.32599, -0.17700, -0.03052, -101.66000, -4.78400, -1.04650,
17551, 573.00000, -77.00000, 2013.00000, 1.38702, 0.00610, -0.03052, -101.66000, -4.78400, -1.04650,
17559, 567.00000, -74.00000, 2017.00000, 1.44806, 0.43335, -0.03052, -101.66000, -4.78400, -1.04650,
17594, 569.00000, -73.00000, 2018.00000, 1.44806, 0.37231, 0.09155, -101.66000, -4.78400, -1.04650,
17634, 563.00000, -78.00000, 2016.00000, 1.44806, -0.11597, 0.03052, -101.66000, -4.78400, -1.04650,
17640, 565.00000, -77.00000, 2017.00000, 1.38702, -0.05493, -0.03052, -101.66000, -4.78400, -1.04650,
17652, 569.00000, -79.00000, 2015.00000, 1.38702, -0.05493, -0.09155, -101.66000, -4.78400, -1.04650,
17684, 571.00000, -77.00000, 2017.00000, 1.38702, -0.05493, -0.03052, -98.96900, -6.12950, -2.54150,
17704, 570.00000, -75.00000, 2015.00000, 1.38702, -0.05493, -0.03052, -98.96900, -6.12950, -2.54150,
17711, 569.00000, -80.00000, 2013.00000, 1.38702, 0.00610, -0.03052, -98.96900, -6.12950, -2.54150,
17751, 570.00000, -81.00000, 2015.00000, 1.38702, -0.11597, -0.09155, -102.25800, -4.93350, -0.74750,
17761, 570.00000, -81.00000, 2012.00000, 1.38702, -0.11597, 0.03052, -102.25800, -4.93350, -0.74750,
17769, 571.00000, -80.00000, 2011.00000, 1.44806, -0.11597, -0.03052, -102.25800, -4.93350, -0.74750,
17780, 572.00000, -80.00000, 2013.00000, 1.38702, -0.11597, -0.03052, -100.16500, -6.72750, -1.04650,
17787, 573.00000, -77.00000, 2014.00000, 1.44806, -0.05493, 0.03052, -100.16500, -6.72750, -1.04650,
17798, 570.00000, -79.00000, 2012.00000, 1.38702, 0.06714, -0.03052, -100.16500, -6.72750, -1.04650,
17809, 573.00000, -75.00000, 2014.00000, 1.44806, 0.37231, -0.09155, -100.16500, -6.72750, -1.04650,
17818, 573.00000, -75.00000, 2014.00000, 1.38702, 0.43335, -0.09155, -100.16500, -6.72750, -1.04650,
17827, 570.00000, -77.00000, 2019.00000, 1.44806, 0.37231, -0.09155, -99.26800, -6.12950, -1.19600,
17867, 569.00000, -78.00000, 2014.00000, 1.38702, -0.17700, -0.03052, -99.26800, -6.12950, -1.19600,
17874, 570.00000, -78.00000, 2016.00000, 1.38702, -0.23804, 0.03052, -103.00550, -4.18600, -1.49500,
17885, 573.00000, -80.00000, 2014.00000, 1.38702, -0.23804, 0.03052, -103.00550, -4.18600, -1.49500,
17896, 573.00000, -76.00000, 2014.00000, 1.38702, -0.11597, -0.03052, -103.00550, -4.18600, -1.49500,
17903, 571.00000, -79.00000, 2015.00000, 1.32599, 0.06714, -0.03052, -100.61349, -4.78400, -2.09300,
17933, 568.00000, -80.00000, 2018.00000, 1.38702, 0.06714, -0.03052, -100.61349, -4.78400, -2.09300,
17960, 570.00000, -75.00000, 2014.00000, 1.44806, 0.06714, -0.03052, -100.61349, -4.78400, -2.09300,
17969, 570.00000, -76.00000, 2015.00000, 1.32599, 0.00610, -0.09155, -100.61349, -4.78400, -2.09300,
17978, 570.00000, -74.00000, 2021.00000, 1.38702, 0.06714, -0.03052, -100.61349, -4.78400, -2.09300,
17987, 571.00000, -79.00000, 2019.00000, 1.26495, 0.06714, -0.09155, -100.61349, -4.78400, -2.09300,
17996, 568.00000, -78.00000, 2018.00000, 1.38702, 0.06714, -0.09155, -100.61349, -4.78400, -2.09300,
18005, 571.00000, -77.00000, 2016.00000, 1.38702, 0.00610, -0.09155, -100.61349, -4.78400, -2.09300,
18018, 570.00000, -76.00000, 2012.00000, 1.38702, 0.00610, -0.03052, -100.61349, -4.78400, -2.09300,
18025, 569.00000, -76.00000, 2015.00000, 1.38702, 0.00610, -0.03052, -100.61349, -4.78400, -2.09300,
18036, 572.00000, -79.00000, 2016.00000, 1.38702, -0.05493, -0.03052, -100.61349, -4.78400, -2.09300,
18044, 572.00000, -77.00000, 2018.00000, 1.38702, 0.12817, 0.03052, -100.61349, -4.78400, -2.09300,
18084, 568.00000, -74.00000, 2016.00000, 1.38702, 0.18921, -0.03052, -101.36100, -4.48500, -0.29900,
18093, 568.00000, -76.00000, 2014.00000, 1.38702, 0.06714, -0.09155, -101.36100, -4.48500, -0.29900,
18102, 568.00000, -76.00000, 2013.00000, 1.38702, -0.05493, -0.03052, -101.36100, -4.48500, -0.29900,
18111, 569.00000, -77.00000, 2012.00000, 1.38702, -0.17700, -0.03052, -101.36100, -4.48500, -0.29900,
18120, 568.00000, -80.00000, 2012.00000, 1.38702, -0.23804, 0.03052, -101.36100, -4.48500, -0.29900,
18130, 572.00000, -80.00000, 2016.00000, 1.38702, -0.23804, -0.03052, -101.51050, -4.63450, -1.49500,
18140, 572.00000, -81.00000, 2014.00000, 1.44806, -0.17700, -0.03052, -101.51050, -4.63450, -1.49500,
18151, 572.00000, -79.00000, 2015.00000, 1.38702, -0.05493, -0.03052, -101.51050, -4.63450, -1.49500,
18159, 571.00000, -77.00000, 2018.00000, 1.26495, 0.25024, -0.09155, -99.26800, -8.37200, -0.74750,
18199, 573.00000, -78.00000, 2018.00000, 1.38702, 0.18921, -0.09155, -99.26800, -8.37200, -0.74750,
18239, 569.00000, -79.00000, 2015.00000, 1.38702, -0.11597, 0.03052, -101.36100, -4.78400, 0.29900,
18279, 570.00000, -78.00000, 2019.00000, 1.44806, 0.12817, -0.09155, -100.91250, -4.78400, 0.00000,
18319, 571.00000, -77.00000, 2015.00000, 1.38702, 0.00610, -0.03052, -100.91250, -4.78400, 0.00000,
18359, 569.00000, -77.00000, 2013.00000, 1.32599, 0.00610, -0.03052, -100.76300, -2.69100, -1.94350,
18366, 570.00000, -80.00000, 2014.00000, 1.32599, -0.05493, -0.03052, -100.76300, -2.69100, -1.94350,
18375, 570.00000, -78.00000, 2016.00000, 1.32599, -0.05493, -0.09155, -99.86600, -5.98000, -1.64450,
18387, 569.00000, -78.00000, 2015.00000, 1.38702, -0.05493, -0.03052, -99.86600, -5.98000, -1.64450,
18395, 567.00000, -80.00000, 2013.00000, 1.32599, 0.00610, 0.03052, -99.86600, -5.98000, -1.64450,
18435, 570.00000, -78.00000, 2015.00000, 1.38702, 0.06714, 0.03052, -99.86600, -5.98000, -1.64450,
18475, 569.00000, -78.00000, 2015.00000, 1.44806, -0.17700, -0.03052, -99.86600, -5.98000, -1.64450,
18482, 571.00000, -78.00000, 2017.00000, 1.38702, -0.05493, 0.03052, -99.86600, -5.98000, -1.64450,
18522, 570.00000, -79.00000, 2016.00000, 1.32599, 0.25024, -0.03052, -101.06200, -5.38200, -0.14950,
18528, 566.00000, -80.00000, 2016.00000, 1.32599, 0.25024, -0.03052, -101.06200, -5.38200, -0.14950,
18537, 565.00000, -77.00000, 2014.00000, 1.38702, 0.18921, 0.03052, -101.06200, -5.38200, -0.14950,
18577, 568.00000, -81.00000, 2018.00000, 1.38702, -0.29907, 0.03052, -101.95900, -4.78400, 0.00000,
18617, 570.00000, -80.00000, 2014.00000, 1.38702, 0.12817, -0.03052, -101.80950, -4.93350, -0.14950,
18624, 570.00000, -80.00000, 2016.00000, 1.38702, 0.06714, -0.03052, -101.80950, -4.93350, -0.14950,
18635, 568.00000, -83.00000, 2017.00000, 1.32599, 0.06714, -0.03052, -101.80950, -4.93350, -0.14950,
18643, 566.00000, -81.00000, 2016.00000, 1.38702, 0.00610, -0.03052, -101.80950, -4.93350, -0.14950,
18653, 567.00000, -80.00000, 2014.00000, 1.38702, -0.05493, -0.03052, -101.80950, -4.93350, -0.14950,
18661, 572.00000, -79.00000, 2017.00000, 1.38702, 0.06714, -0.09155, -100.01550, -5.68100, 0.44850,
18701, 571.00000, -76.00000, 2011.00000, 1.32599, 0.00610, -0.03052, -100.01550, -5.68100, 0.44850,
18741, 573.00000, -78.00000, 2013.00000, 1.38702, 0.06714, -0.03052, -102.40750, -4.03650, -1.34550,
18747, 572.00000, -77.00000, 2014.00000, 1.38702, 0.12817, -0.09155, -102.40750, -4.03650, -1.34550,
18756, 572.00000, -78.00000, 2016.00000, 1.38702, 0.06714, -0.03052, -102.40750, -4.03650, -1.34550,
18765, 570.00000, -78.00000, 2016.00000, 1.32599, 0.12817, -0.03052, -102.40750, -3.28900, -1.04650,
18777, 570.00000, -80.00000, 2018.00000, 1.32599, 0.18921, -0.03052, -102.40750, -3.28900, -1.04650,
18785, 569.00000, -78.00000, 2017.00000, 1.32599, 0.12817, -0.03052, -102.40750, -3.28900, -1.04650,
18796, 570.00000, -79.00000, 2015.00000, 1.32599, 0.00610, -0.03052, -102.40750, -3.28900, -1.04650,
18804, 567.00000, -76.00000, 2012.00000, 1.38702, 0.00610, -0.03052, -102.40750, -3.28900, -1.04650,
18814, 567.00000, -80.00000, 2012.00000, 1.38702, -0.05493, -0.03052, -100.76300, -5.68100, -0.14950,
18825, 567.00000, -77.00000, 2016.00000, 1.38702, -0.29907, -0.03052, -100.76300, -5.68100, -0.14950,
18834, 570.00000, -77.00000, 2015.00000, 1.38702, -0.36011, -0.09155, -100.76300, -5.68100, -0.14950,
18843, 573.00000, -75.00000, 2016.00000, 1.44806, -0.23804, -0.15259, -100.76300, -5.68100, -0.14950,
18852, 572.00000, -76.00000, 2016.00000, 1.38702, -0.11597, -0.15259, -100.76300, -5.68100, -0.14950,
18862, 572.00000, -76.00000, 2017.00000, 1.38702, 0.06714, -0.03052, -100.76300, -5.68100, -0.14950,
18872, 570.00000, -76.00000, 2017.00000, 1.38702, 0.18921, -0.03052, -100.76300, -5.68100, -0.14950,
18883, 571.00000, -75.00000, 2016.00000, 1.38702, 0.12817, -0.03052, -100.76300, -5.68100, -0.14950,
18891, 571.00000, -76.00000, 2016.00000, 1.44806, 0.18921, -0.09155, -100.76300, -5.68100, -0.14950,
18901, 571.00000, -78.00000, 2014.00000, 1.32599, 0.12817, -0.03052, -100.76300, -5.68100, -0.14950,
18909, 573.00000, -79.00000, 2015.00000, 1.38702, 0.06714, -0.03052, -100.76300, -5.68100, -0.14950,
18921, 570.00000, -77.00000, 2011.00000, 1.38702, -0.05493, -0.03052, -100.76300, -5.68100, -0.14950,
18951, 569.00000, -81.00000, 2011.00000, 1.44806, 0.00610, -0.03052, -100.76300, -5.68100, -0.14950,
18984, 570.00000, -78.00000, 2015.00000, 1.32599, 0.18921, -0.09155, -98.81950, -4.03650, -2.39200,
19024, 570.00000, -78.00000, 2015.00000, 1.38702, -0.11597, 0.03052, -101.51050, -4.93350, 0.74750,
19064, 571.00000, -82.00000, 2015.00000, 1.38702, 0.00610, -0.03052, -101.36100, -4.03650, 1.04650,
19104, 566.00000, -81.00000, 2015.00000, 1.32599, 0.00610, -0.09155, -101.36100, -4.03650, 1.04650,
19144, 566.00000, -78.00000, 2015.00000, 1.38702, 0.25024, -0.03052, -99.86600, -4.48500, -1.04650,
19191, 567.00000, -78.00000, 2014.00000, 1.32599, -0.17700, -0.03052, -101.95900, -3.73750, 1.34550,
19199, 569.00000, -77.00000, 2012.00000, 1.32599, -0.05493, -0.09155, -101.95900, -3.73750, 1.34550,
19209, 569.00000, -79.00000, 2013.00000, 1.38702, 0.06714, -0.03052, -99.11850, -5.98000, -1.04650,
19249, 569.00000, -78.00000, 2014.00000, 1.32599, 0.06714, -0.03052, -99.11850, -5.98000, -1.04650,
19289, 568.00000, -79.00000, 2013.00000, 1.32599, -0.05493, -0.03052, -99.86600, -7.47500, -2.39200,
19296, 569.00000, -78.00000, 2013.00000, 1.32599, 0.00610, 0.03052, -99.86600, -7.47500, -2.39200,
19336, 568.00000, -76.00000, 2015.00000, 1.32599, -0.17700, -0.03052, -99.86600, -7.47500, -2.39200,
19343, 566.00000, -80.00000, 2014.00000, 1.38702, -0.05493, -0.03052, -99.86600, -7.47500, -2.39200,
19354, 569.00000, -81.00000, 2014.00000, 1.38702, 0.06714, 0.03052, -99.86600, -7.47500, -2.39200,
19394, 567.00000, -81.00000, 2010.00000, 1.32599, 0.12817, -0.03052, -99.86600, -7.47500, -2.39200,
19439, 567.00000, -80.00000, 2013.00000, 1.32599, 0.00610, -0.03052, -101.06200, -5.38200, 0.14950,
19479, 564.00000, -76.00000, 2013.00000, 1.38702, 0.00610, 0.03052, -101.51050, -4.18600, -0.44850,
19519, 568.00000, -79.00000, 2015.00000, 1.38702, 0.00610, -0.03052, -101.80950, -4.63450, 0.74750,
19559, 574.00000, -77.00000, 2013.00000, 1.32599, 0.00610, 0.03052, -101.95900, -5.53150, -0.59800,
19599, 568.00000, -79.00000, 2014.00000, 1.38702, 0.12817, -0.03052, -101.95900, -5.53150, -0.59800,
19605, 568.00000, -77.00000, 2016.00000, 1.38702, 0.12817, 0.03052, -100.01550, -6.12950, -0.74750,
19645, 568.00000, -78.00000, 2012.00000, 1.38702, 0.00610, -0.03052, -100.01550, -6.12950, -0.74750,
19651, 569.00000, -79.00000, 2010.00000, 1.38702, 0.06714, -0.03052, -100.01550, -6.12950, -0.74750,
19663, 568.00000, -80.00000, 2014.00000, 1.44806, 0.12817, -0.03052, -100.61349, -5.53150, -1.34550,
19671, 568.00000, -79.00000, 2012.00000, 1.44806, 0.00610, -0.09155, -100.61349, -5.53150, -1.34550,
19702, 568.00000, -78.00000, 2014.00000, 1.38702, -0.11597, -0.09155, -99.71650, -4.93350, -1.19600,
19711, 568.00000, -77.00000, 2017.00000, 1.38702, -0.11597, -0.09155, -99.71650, -4.93350, -1.19600,
19720, 569.00000, -78.00000, 2016.00000, 1.32599, -0.17700, -0.09155, -99.71650, -4.93350, -1.19600,
19752, 569.00000, -80.00000, 2009.00000, 1.32599, -0.05493, -0.09155, -99.71650, -4.93350, -1.19600,
19758, 568.00000, -83.00000, 2012.00000, 1.32599, -0.05493, -0.03052, -99.71650, -4.93350, -1.19600,
19766, 570.00000, -83.00000, 2012.00000, 1.32599, -0.05493, -0.09155, -99.71650, -4.93350, -1.19600,
19774, 569.00000, -78.00000, 2014.00000, 1.38702, -0.05493, -0.03052, -99.71650, -4.93350, -1.19600,
19808, 572.00000, -80.00000, 2015.00000, 1.38702, 0.06714, 0.03052, -99.71650, -4.93350, -1.19600,
19848, 566.00000, -79.00000, 2013.00000, 1.38702, 0.25024, -0.03052, -99.71650, -4.93350, -1.19600,
19888, 568.00000, -80.00000, 2015.00000, 1.38702, 0.06714, -0.03052, -96.42750, -7.17600, -3.28900,
19965, 569.00000, -83.00000, 2015.00000, 1.38702, -0.11597, 0.03052, -96.57700, -4.03650, -4.93350,
20005, 570.00000, -81.00000, 2016.00000, 1.38702, -0.05493, 0.03052, -100.16500, -4.78400, -2.39200,
20012, 567.00000, -77.00000, 2015.00000, 1.44806, 0.18921, -0.03052, -100.16500, -4.78400, -2.39200,
20050, 568.00000, -80.00000, 2013.00000, 1.44806, -0.05493, -0.03052, -99.86600, -5.53150, -2.39200,
20085, 569.00000, -77.00000, 2017.00000, 1.38702, 0.06714, -0.03052, -97.92250, -8.37200, -4.33550,
20125, 566.00000, -80.00000, 2014.00000, 1.32599, 0.06714, 0.03052, -97.92250, -8.37200, -4.33550,
20165, 565.00000, -78.00000, 2013.00000, 1.44806, -0.11597, 0.03052, -102.70650, -3.28900, -0.29900,
20196, 572.00000, -76.00000, 2015.00000, 1.26495, 0.06714, -0.03052, -102.70650, -3.28900, -0.29900,
20281, 565.00000, -81.00000, 2014.00000, 1.38702, 0.06714, -0.09155, -94.18500, -7.17600, -4.78400,
20321, 568.00000, -82.00000, 2017.00000, 1.38702, 0.00610, 0.03052, -97.02550, -5.53150, -4.18600,
20361, 568.00000, -79.00000, 2014.00000, 1.44806, 0.12817, -0.09155, -97.02550, -5.53150, -4.18600,
20401, 569.00000, -78.00000, 2013.00000, 1.50909, -0.17700, 0.03052, -100.91250, -4.03650, 0.00000,
20441, 571.00000, -78.00000, 2013.00000, 1.38702, 0.12817, -0.09155, -99.86600, -3.28900, -0.29900,
20525, 570.00000, -81.00000, 2014.00000, 1.32599, 0.00610, -0.09155, -96.57700, -6.27900, -4.48500,
20565, 568.00000, -81.00000, 2015.00000, 1.38702, 0.06714, 0.03052, -97.02550, -6.72750, -4.18600,
20605, 570.00000, -78.00000, 2016.00000, 1.38702, 0.00610, -0.03052, -97.02550, -6.72750, -4.18600,
20645, 568.00000, -78.00000, 2015.00000, 1.44806, -0.05493, 0.03052, -97.02550, -6.72750, -4.18600,
20685, 570.00000, -80.00000, 2012.00000, 1.38702, -0.05493, 0.03052, -97.02550, -6.72750, -4.18600,
20725, 571.00000, -77.00000, 2014.00000, 1.38702, 0.06714, 0.03052, -97.02550, -6.72750, -4.18600,
20765, 568.00000, -79.00000, 2013.00000, 1.38702, -0.11597, -0.03052, -97.17500, -6.42850, -2.54150,
20797, 567.00000, -80.00000, 2014.00000, 1.38702, -0.17700, -0.03052, -97.17500, -6.42850, -2.54150,
20806, 566.00000, -80.00000, 2013.00000, 1.38702, 0.00610, 0.03052, -97.17500, -6.42850, -2.54150,
20846, 568.00000, -79.00000, 2017.00000, 1.38702, 0.00610, 0.03052, -100.16500, -6.72750, -2.39200,
20886, 567.00000, -79.00000, 2010.00000, 1.38702, -0.05493, -0.09155, -100.16500, -6.72750, -2.39200,
20895, 570.00000, -80.00000, 2013.00000, 1.32599, 0.12817, 0.03052, -99.71650, -3.43850, -0.44850,
20935, 569.00000, -77.00000, 2012.00000, 1.32599, 0.12817, -0.03052, -99.71650, -3.43850, -0.44850,
20975, 569.00000, -79.00000, 2013.00000, 1.38702, 0.00610, 0.03052, -100.46400, -4.18600, -1.94350,
21015, 568.00000, -80.00000, 2016.00000, 1.32599, -0.05493, -0.09155, -96.27800, -7.47500, -3.13950,
21046, 567.00000, -80.00000, 2016.00000, 1.38702, -0.17700, -0.09155, -96.27800, -7.47500, -3.13950,
21060, 567.00000, -79.00000, 2015.00000, 1.38702, -0.17700, -0.03052, -96.27800, -7.47500, -3.13950,
21069, 570.00000, -80.00000, 2014.00000, 1.32599, -0.11597, -0.09155, -96.27800, -7.47500, -3.13950,
21079, 569.00000, -82.00000, 2012.00000, 1.38702, 0.00610, -0.09155, -96.27800, -7.47500, -3.13950,
21119, 567.00000, -79.00000, 2016.00000, 1.38702, 0.12817, -0.09155, -96.27800, -7.47500, -3.13950,
21159, 566.00000, -80.00000, 2014.00000, 1.32599, 0.12817, -0.03052, -96.27800, -7.47500, -3.13950,
21199, 567.00000, -76.00000, 2014.00000, 1.38702, 0.00610, 0.03052, -101.66000, -5.98000, 1.34550,
21252, 566.00000, -81.00000, 2015.00000, 1.32599, -0.05493, -0.03052, -101.66000, -4.03650, -0.59800,
21261, 567.00000, -79.00000, 2014.00000, 1.44806, 0.00610, -0.03052, -101.66000, -4.03650, -0.59800,
21288, 568.00000, -77.00000, 2015.00000, 1.32599, 0.00610, -0.03052, -101.66000, -4.48500, 1.34550,
21328, 569.00000, -77.00000, 2012.00000, 1.38702, 0.00610, -0.09155, -101.66000, -4.48500, 1.34550,
21368, 569.00000, -80.00000, 2014.00000, 1.38702, 0.12817, 0.03052, -99.56700, -5.98000, -0.29900,
21408, 568.00000, -78.00000, 2014.00000, 1.38702, 0.06714, -0.03052, -103.15500, -4.03650, -1.34550,
21414, 567.00000, -76.00000, 2016.00000, 1.38702, 0.00610, -0.03052, -103.15500, -4.03650, -1.34550,
21425, 567.00000, -79.00000, 2014.00000, 1.38702, -0.05493, -0.03052, -103.15500, -4.03650, -1.34550,
21433, 574.00000, -79.00000, 2015.00000, 1.38702, -0.11597, -0.03052, -100.46400, -5.38200, -1.94350,
21445, 573.00000, -80.00000, 2017.00000, 1.32599, 0.00610, -0.09155, -100.46400, -5.38200, -1.94350,
21455, 569.00000, -82.00000, 2018.00000, 1.38702, 0.00610, -0.09155, -100.46400, -5.38200, -1.94350,
21464, 567.00000, -81.00000, 2016.00000, 1.32599, 0.06714, -0.09155, -100.46400, -5.38200, -1.94350,
21473, 567.00000, -81.00000, 2011.00000, 1.38702, 0.00610, -0.09155, -100.46400, -5.38200, -1.94350,
21483, 565.00000, -81.00000, 2013.00000, 1.44806, -0.05493, -0.03052, -99.56700, -7.02650, -1.64450,
21503, 567.00000, -81.00000, 2015.00000, 1.44806, -0.11597, -0.03052, -99.56700, -7.02650, -1.64450,
21513, 570.00000, -80.00000, 2014.00000, 1.38702, -0.05493, -0.03052, -99.56700, -7.02650, -1.64450,
21544, 568.00000, -78.00000, 2011.00000, 1.32599, 0.06714, -0.03052, -99.56700, -7.02650, -1.64450,
21584, 567.00000, -84.00000, 2013.00000, 1.38702, 0.00610, -0.03052, -99.56700, -7.02650, -1.64450,
21624, 568.00000, -82.00000, 2014.00000, 1.38702, 0.12817, 0.03052, -99.56700, -7.02650, -1.64450,
21664, 569.00000, -79.00000, 2013.00000, 1.44806, 0.12817, -0.03052, -101.36100, -7.47500, -1.04650,
21671, 569.00000, -79.00000, 2015.00000, 1.38702, 0.00610, -0.03052, -101.36100, -7.47500, -1.04650,
21681, 568.00000, -81.00000, 2016.00000, 1.38702, -0.05493, -0.03052, -99.56700, -7.02650, -1.34550,
21690, 569.00000, -78.00000, 2015.00000, 1.44806, -0.11597, -0.03052, -99.56700, -7.02650, -1.34550,
21724, 571.00000, -75.00000, 2018.00000, 1.38702, -0.11597, 0.03052, -98.81950, -5.23250, -1.64450,
21764, 567.00000, -80.00000, 2014.00000, 1.38702, 0.00610, -0.03052, -98.81950, -5.23250, -1.64450,
21804, 569.00000, -77.00000, 2017.00000, 1.38702, -0.11597, -0.09155, -99.86600, -5.98000, -0.59800,
21810, 570.00000, -76.00000, 2017.00000, 1.38702, 0.06714, -0.03052, -99.86600, -5.98000, -0.59800,
21850, 567.00000, -76.00000, 2012.00000, 1.44806, 0.06714, -0.03052, -101.36100, -5.98000, 0.59800,
21890, 566.00000, -79.00000, 2015.00000, 1.38702, -0.05493, -0.03052, -103.15500, -4.78400, 0.29900,
21900, 568.00000, -78.00000, 2014.00000, 1.44806, 0.06714, -0.03052, -103.15500, -4.78400, 0.29900,
21940, 566.00000, -78.00000, 2015.00000, 1.32599, -0.17700, -0.03052, -102.25800, -4.18600, 0.44850,
21947, 566.00000, -81.00000, 2013.00000, 1.32599, -0.17700, -0.03052, -102.25800, -4.18600, 0.44850,
21955, 567.00000, -79.00000, 2011.00000, 1.38702, -0.17700, -0.03052, -102.25800, -4.18600, 0.44850,
21966, 567.00000, -79.00000, 2010.00000, 1.32599, -0.11597, -0.09155, -102.25800, -4.18600, 0.44850,
21977, 568.00000, -79.00000, 2015.00000, 1.32599, -0.05493, -0.03052, -100.01550, -4.18600, -0.74750,
21986, 569.00000, -80.00000, 2015.00000, 1.38702, 0.06714, -0.03052, -100.01550, -4.18600, -0.74750,
21996, 567.00000, -80.00000, 2010.00000, 1.38702, 0.18921, 0.03052, -100.01550, -4.18600, -0.74750,
22036, 567.00000, -79.00000, 2015.00000, 1.38702, 0.06714, 0.03052, -100.01550, -4.18600, -0.74750,
22076, 567.00000, -78.00000, 2016.00000, 1.32599, 0.06714, -0.03052, -100.01550, -4.18600, -0.74750,
22085, 566.00000, -81.00000, 2017.00000, 1.44806, 0.06714, -0.03052, -100.01550, -4.18600, -0.74750,
22094, 568.00000, -78.00000, 2017.00000, 1.38702, 0.06714, -0.03052, -100.01550, -4.18600, -0.74750,
22104, 567.00000, -78.00000, 2015.00000, 1.38702, 0.00610, 0.03052, -100.01550, -4.18600, -0.74750,
22144, 570.00000, -82.00000, 2015.00000, 1.32599, -0.05493, -0.03052, -100.46400, -5.38200, -0.74750,
22151, 566.00000, -82.00000, 2013.00000, 1.38702, 0.00610, 0.03052, -100.46400, -5.38200, -0.74750,
22191, 568.00000, -81.00000, 2013.00000, 1.44806, 0.00610, -0.03052, -101.95900, -4.78400, -0.29900,
22198, 571.00000, -80.00000, 2015.00000, 1.38702, 0.00610, -0.03052, -101.95900, -4.78400, -0.29900,
22206, 569.00000, -81.00000, 2012.00000, 1.32599, 0.06714, -0.03052, -101.95900, -4.78400, -0.29900,
22217, 566.00000, -82.00000, 2014.00000, 1.38702, 0.12817, 0.03052, -101.95900, -4.78400, -0.29900,
22265, 568.00000, -80.00000, 2017.00000, 1.32599, -0.17700, -0.03052, -98.52050, -5.68100, -1.94350,
22277, 569.00000, -82.00000, 2015.00000, 1.32599, -0.17700, 0.03052, -101.66000, -4.48500, -1.04650,
22312, 568.00000, -81.00000, 2012.00000, 1.38702, 0.18921, -0.03052, -101.66000, -4.48500, -1.04650,
22318, 569.00000, -82.00000, 2013.00000, 1.38702, 0.31128, -0.03052, -101.66000, -4.48500, -1.04650,
22327, 570.00000, -80.00000, 2016.00000, 1.38702, 0.37231, -0.03052, -100.01550, -4.63450, -2.54150,
22337, 567.00000, -78.00000, 2014.00000, 1.38702, 0.25024, -0.03052, -100.01550, -4.63450, -2.54150,
22349, 568.00000, -78.00000, 2018.00000, 1.32599, -0.11597, -0.03052, -100.01550, -4.63450, -2.54150,
22357, 567.00000, -77.00000, 2012.00000, 1.32599, -0.23804, -0.03052, -100.01550, -4.63450, -2.54150,
22368, 568.00000, -75.00000, 2011.00000, 1.32599, -0.29907, -0.03052, -100.01550, -4.63450, -2.54150,
22376, 569.00000, -77.00000, 2013.00000, 1.32599, -0.29907, -0.03052, -100.01550, -3.43850, -1.49500,
22386, 569.00000, -82.00000, 2015.00000, 1.32599, -0.23804, 0.03052, -100.01550, -3.43850, -1.49500,
22397, 573.00000, -79.00000, 2014.00000, 1.26495, -0.17700, -0.03052, -100.01550, -3.43850, -1.49500,
22407, 572.00000, -82.00000, 2010.00000, 1.32599, -0.23804, 0.03052, -100.01550, -3.43850, -1.49500,
22416, 572.00000, -80.00000, 2011.00000, 1.38702, -0.42114, -0.09155, -99.86600, -6.27900, -1.34550,
22425, 574.00000, -80.00000, 2013.00000, 1.32599, -0.42114, -0.09155, -99.86600, -6.27900, -1.34550,
22435, 575.00000, -78.00000, 2012.00000, 1.44806, -0.29907, -0.03052, -99.86600, -6.27900, -1.34550,
22446, 578.00000, -80.00000, 2009.00000, 1.32599, 0.06714, -0.03052, -99.86600, -6.27900, -1.34550,
22486, 563.00000, -76.00000, 2017.00000, 1.44806, 1.04370, -0.03052, -99.86600, -6.27900, -1.34550,
22526, 564.00000, -81.00000, 2017.00000, 1.44806, -0.42114, 0.03052, -99.86600, -6.27900, -1.34550,
22566, 566.00000, -80.00000, 2012.00000, 1.38702, 0.06714, 0.03052, -99.86600, -6.27900, -1.34550,
22606, 562.00000, -81.00000, 2014.00000, 1.32599, 0.18921, -0.03052, -102.25800, -4.93350, 0.74750,
22646, 570.00000, -82.00000, 2010.00000, 1.32599, -0.72632, 0.03052, -100.76300, -3.43850, -2.24250,
22653, 574.00000, -80.00000, 2011.00000, 1.38702, -0.90942, -0.03052, -100.76300, -3.43850, -2.24250,
22663, 575.00000, -83.00000, 2013.00000, 1.32599, -0.78735, -0.03052, -100.76300, -3.43850, -2.24250,
22672, 574.00000, -80.00000, 2011.00000, 1.44806, -0.42114, 0.03052, -100.46400, -6.42850, -2.99000,
22681, 575.00000, -76.00000, 2009.00000, 1.38702, -0.11597, 0.03052, -100.46400, -6.42850, -2.99000,
22694, 576.00000, -75.00000, 2010.00000, 1.38702, 0.00610, 0.09155, -100.46400, -6.42850, -2.99000,
22734, 571.00000, -79.00000, 2017.00000, 1.44806, 1.04370, -0.09155, -100.46400, -3.43850, -2.24250,
22741, 566.00000, -77.00000, 2012.00000, 1.44806, 1.10474, -0.09155, -100.46400, -3.43850, -2.24250,
22749, 559.00000, -80.00000, 2012.00000, 1.38702, 0.37231, -0.09155, -100.16500, -5.23250, -1.34550,
22779, 559.00000, -79.00000, 2020.00000, 1.44806, -0.11597, -0.03052, -100.16500, -5.23250, -1.34550,
22790, 564.00000, -81.00000, 2026.00000, 1.38702, -0.42114, -0.03052, -100.16500, -5.23250, -1.34550,
22800, 563.00000, -78.00000, 2015.00000, 1.38702, -0.60425, 0.03052, -100.16500, -5.23250, -1.34550,
22824, 571.00000, -78.00000, 2020.00000, 1.44806, -0.17700, 0.03052, -100.76300, -4.93350, -1.94350,
22830, 569.00000, -77.00000, 2015.00000, 1.38702, 0.00610, -0.03052, -100.76300, -4.93350, -1.94350,
22839, 567.00000, -80.00000, 2013.00000, 1.38702, 0.06714, -0.09155, -100.76300, -4.93350, -1.94350,
22850, 568.00000, -81.00000, 2016.00000, 1.38702, -0.11597, -0.09155, -100.76300, -4.93350, -1.94350,
22861, 569.00000, -81.00000, 2014.00000, 1.38702, -0.29907, -0.03052, -100.76300, -4.93350, -1.94350,
22869, 571.00000, -79.00000, 2014.00000, 1.38702, -0.48218, 0.03052, -100.16500, -5.53150, -1.34550,
22880, 575.00000, -78.00000, 2013.00000, 1.32599, -0.66528, 0.09155, -100.16500, -5.53150, -1.34550,
22888, 574.00000, -80.00000, 2011.00000, 1.32599, -0.60425, 0.03052, -100.16500, -5.53150, -1.34550,
22900, 572.00000, -84.00000, 2006.00000, 1.32599, -0.48218, -0.03052, -100.16500, -5.53150, -1.34550,
22909, 573.00000, -80.00000, 2009.00000, 1.38702, -0.11597, -0.03052, -100.16500, -5.53150, -1.34550,
22919, 571.00000, -78.00000, 2011.00000, 1.38702, 0.25024, -0.09155, -99.56700, -7.47500, -2.39200,
22959, 563.00000, -77.00000, 2014.00000, 1.44806, 0.55542, -0.09155, -99.56700, -7.47500, -2.39200,
22999, 568.00000, -81.00000, 2014.00000, 1.32599, 0.06714, -0.09155, -99.56700, -7.47500, -2.39200,
23039, 568.00000, -79.00000, 2011.00000, 1.38702, -0.11597, -0.03052, -99.56700, -7.47500, -2.39200,
23045, 572.00000, -78.00000, 2011.00000, 1.38702, -0.23804, 0.03052, -99.56700, -7.47500, -2.39200,
23085, 574.00000, -77.00000, 2013.00000, 1.38702, 0.18921, -0.03052, -101.06200, -5.38200, -1.49500,
23091, 573.00000, -79.00000, 2012.00000, 1.32599, 0.25024, -0.09155, -101.06200, -5.38200, -1.49500,
23102, 569.00000, -79.00000, 2014.00000, 1.32599, 0.25024, -0.09155, -101.06200, -5.38200, -1.49500,
23113, 565.00000, -81.00000, 2017.00000, 1.32599, 0.12817, -0.03052, -99.56700, -5.98000, -2.09300,
23153, 572.00000, -80.00000, 2012.00000, 1.38702, -0.29907, 0.03052, -99.56700, -5.98000, -2.09300,
23193, 567.00000, -80.00000, 2015.00000, 1.44806, 0.79956, -0.09155, -100.16500, -5.23250, -1.64450,
23199, 564.00000, -82.00000, 2018.00000, 1.38702, 0.79956, -0.09155, -100.16500, -5.23250, -1.64450,
23208, 561.00000, -79.00000, 2015.00000, 1.38702, 0.49438, -0.09155, -98.81950, -5.23250, -1.34550,
23248, 568.00000, -80.00000, 2012.00000, 1.32599, -0.84839, 0.03052, -98.81950, -5.23250, -1.34550,
23288, 575.00000, -79.00000, 2011.00000, 1.32599, 0.06714, -0.09155, -99.86600, -4.78400, -1.64450,
23328, 570.00000, -85.00000, 2012.00000, 1.38702, 0.25024, 0.03052, -100.91250, -5.23250, 0.59800,
23368, 564.00000, -80.00000, 2022.00000, 1.38702, 0.37231, -0.09155, -101.06200, -4.18600, -0.44850,
23374, 563.00000, -80.00000, 2017.00000, 1.32599, 0.18921, -0.09155, -101.06200, -4.18600, -0.44850,
23386, 568.00000, -80.00000, 2016.00000, 1.38702, -0.23804, -0.09155, -101.06200, -4.18600, -0.44850,
23396, 568.00000, -80.00000, 2012.00000, 1.32599, -0.36011, 0.03052, -101.06200, -4.18600, -0.44850,
23405, 568.00000, -76.00000, 2013.00000, 1.38702, -0.29907, 0.03052, -101.06200, -4.18600, -0.44850,
23414, 567.00000, -79.00000, 2015.00000, 1.38702, 0.00610, 0.03052, -101.06200, -4.18600, -0.44850,
23454, 566.00000, -79.00000, 2012.00000, 1.44806, -0.11597, -0.03052, -101.06200, -4.18600, -0.44850,
23464, 566.00000, -79.00000, 2012.00000, 1.32599, -0.60425, 0.03052, -101.06200, -4.18600, -0.44850,
23472, 568.00000, -80.00000, 2010.00000, 1.32599, -1.03149, 0.03052, -101.06200, -4.18600, -0.44850,
23483, 573.00000, -81.00000, 2008.00000, 1.32599, -1.09253, 0.03052, -101.06200, -4.18600, -0.44850,
23491, 576.00000, -77.00000, 2011.00000, 1.32599, -0.84839, 0.03052, -101.06200, -4.18600, -0.44850,
23501, 577.00000, -78.00000, 2008.00000, 1.32599, -0.54321, -0.03052, -101.06200, -4.18600, -0.44850,
23519, 575.00000, -74.00000, 2009.00000, 1.44806, 0.49438, -0.09155, -99.56700, -5.23250, -3.13950,
23559, 568.00000, -74.00000, 2006.00000, 1.50909, 0.79956, 0.03052, -100.46400, -7.62450, -0.74750,
23599, 559.00000, -79.00000, 2011.00000, 1.44806, 0.73853, -0.09155, -100.46400, -7.62450, -0.74750,
23607, 558.00000, -79.00000, 2014.00000, 1.38702, 0.49438, -0.03052, -101.06200, -4.63450, -0.74750,
23618, 554.00000, -77.00000, 2007.00000, 1.44806, 0.37231, -0.03052, -101.06200, -4.63450, -0.74750,
23631, 555.00000, -81.00000, 2014.00000, 1.38702, -0.23804, -0.03052, -101.06200, -4.63450, -0.74750,
23639, 559.00000, -81.00000, 2014.00000, 1.38702, -0.42114, -0.09155, -101.06200, -4.63450, -0.74750,
23649, 564.00000, -81.00000, 2014.00000, 1.32599, -0.60425, -0.03052, -101.06200, -4.63450, -0.74750,
23657, 562.00000, -83.00000, 2014.00000, 1.32599, -0.66528, -0.09155, -100.01550, -4.18600, -2.24250,
23667, 567.00000, -81.00000, 2013.00000, 1.32599, -0.72632, -0.03052, -100.01550, -4.18600, -2.24250,
23678, 569.00000, -81.00000, 2010.00000, 1.32599, -0.60425, -0.03052, -100.01550, -4.18600, -2.24250,
23687, 570.00000, -80.00000, 2011.00000, 1.38702, -0.42114, -0.03052, -100.01550, -4.18600, -2.24250,
23697, 573.00000, -83.00000, 2012.00000, 1.32599, -0.17700, -0.09155, -100.01550, -4.18600, -2.24250,
23706, 571.00000, -80.00000, 2011.00000, 1.44806, 0.00610, -0.09155, -99.71650, -4.63450, -3.28900,
23746, 571.00000, -82.00000, 2012.00000, 1.38702, -0.11597, -0.03052, -99.71650, -4.63450, -3.28900,
23754, 572.00000, -83.00000, 2017.00000, 1.38702, -0.05493, -0.03052, -100.61349, -3.73750, -0.59800,
23764, 572.00000, -83.00000, 2011.00000, 1.38702, 0.00610, -0.03052, -100.61349, -3.73750, -0.59800,
23772, 571.00000, -78.00000, 2012.00000, 1.38702, 0.12817, -0.03052, -100.61349, -3.73750, -0.59800,
23802, 570.00000, -79.00000, 2012.00000, 1.38702, 0.18921, -0.03052, -101.95900, -5.98000, -1.34550,
23810, 568.00000, -79.00000, 2016.00000, 1.38702, 0.31128, -0.09155, -101.95900, -5.98000, -1.34550,
23848, 565.00000, -76.00000, 2008.00000, 1.44806, 0.25024, 0.03052, -101.95900, -5.98000, -1.34550,
23888, 561.00000, -78.00000, 2016.00000, 1.32599, 0.43335, -0.09155, -100.91250, -2.54150, -1.34550,
23894, 560.00000, -82.00000, 2013.00000, 1.32599, 0.37231, -0.09155, -100.91250, -2.54150, -1.34550,
23903, 561.00000, -79.00000, 2019.00000, 1.38702, -0.05493, -0.03052, -100.91250, -2.54150, -1.34550,
23912, 564.00000, -81.00000, 2019.00000, 1.38702, -0.54321, -0.03052, -100.91250, -2.54150, -1.34550,
23924, 568.00000, -78.00000, 2016.00000, 1.32599, -1.03149, 0.03052, -100.91250, -2.54150, -1.34550,
23932, 571.00000, -77.00000, 2008.00000, 1.32599, -1.21460, 0.03052, -100.91250, -2.54150, -1.34550,
23942, 575.00000, -77.00000, 2011.00000, 1.32599, -1.27563, 0.03052, -100.91250, -2.54150, -1.34550,
23949, 582.00000, -78.00000, 2013.00000, 1.26495, -0.90942, -0.09155, -100.91250, -2.54150, -1.34550,
23961, 581.00000, -79.00000, 2012.00000, 1.26495, -0.60425, -0.09155, -100.91250, -2.54150, -1.34550,
23970, 578.00000, -76.00000, 2003.00000, 1.38702, -0.23804, -0.03052, -100.91250, -2.54150, -1.34550,
23978, 580.00000, -81.00000, 2013.00000, 1.32599, -0.05493, -0.15259, -100.91250, -2.54150, -1.34550,
23987, 577.00000, -78.00000, 2012.00000, 1.44806, 0.37231, -0.09155, -96.27800, -5.98000, -4.18600,
24076, 556.00000, -77.00000, 2014.00000, 1.38702, 0.73853, -0.15259, -96.12850, -6.87700, -4.03650,
24116, 565.00000, -75.00000, 2014.00000, 1.32599, -0.60425, -0.03052, -100.76300, -3.88700, -1.49500,
24151, 574.00000, -80.00000, 2008.00000, 1.20392, -1.09253, 0.03052, -100.01550, -7.92350, -2.24250,
24186, 574.00000, -80.00000, 2007.00000, 1.14288, -1.03149, -0.03052, -100.01550, -7.92350, -2.24250,
24195, 586.00000, -83.00000, 2011.00000, 1.38702, -0.48218, -0.03052, -101.06200, -4.93350, -1.94350,
24229, 581.00000, -75.00000, 2010.00000, 1.38702, 0.86060, -0.09155, -95.68000, -7.62450, -2.99000,
24269, 577.00000, -76.00000, 2016.00000, 1.44806, 1.28784, -0.15259, -95.68000, -7.62450, -2.99000,
24331, 561.00000, -77.00000, 2014.00000, 1.32599, 0.00610, -0.09155, -99.26800, -3.43850, -1.19600,
24371, 561.00000, -78.00000, 2014.00000, 1.38702, -1.39771, 0.09155, -99.26800, -3.43850, -1.19600,
24411, 580.00000, -79.00000, 2007.00000, 1.32599, -0.48218, -0.03052, -99.26800, -3.43850, -1.19600,
24443, 580.00000, -80.00000, 2008.00000, 1.26495, -0.17700, -0.03052, -98.81950, -5.98000, -0.29900,
24452, 585.00000, -78.00000, 2010.00000, 1.44806, -0.48218, 0.03052, -98.81950, -5.98000, -0.29900,
24492, 572.00000, -79.00000, 2005.00000, 1.38702, 1.65405, -0.09155, -99.71650, -4.93350, -1.19600,
24532, 552.00000, -85.00000, 2021.00000, 1.32599, 0.79956, -0.09155, -95.82950, -8.97000, -4.93350,
24610, 570.00000, -79.00000, 2010.00000, 1.26495, -0.48218, -0.03052, -96.57700, -7.47500, -4.93350,
24646, 572.00000, -80.00000, 2012.00000, 1.32599, -0.72632, -0.03052, -95.68000, -7.17600, -4.78400,
24655, 586.00000, -77.00000, 2008.00000, 1.38702, -0.05493, 0.03052, -95.68000, -7.17600, -4.78400,
24695, 565.00000, -75.00000, 2018.00000, 1.32599, 1.77612, -0.15259, -99.86600, -3.73750, -1.04650,
24735, 572.00000, -82.00000, 2018.00000, 1.32599, -0.97046, 0.03052, -94.48400, -5.53150, -3.88700,
24775, 570.00000, -83.00000, 2011.00000, 1.44806, -0.36011, 0.09155, -94.48400, -5.53150, -3.88700,
24887, 581.00000, -83.00000, 2015.00000, 1.32599, -0.23804, -0.15259, -98.52050, -6.87700, -3.28900,
24896, 573.00000, -78.00000, 2014.00000, 1.44806, 0.25024, -0.03052, -98.52050, -6.87700, -3.28900,
24936, 576.00000, -74.00000, 2011.00000, 1.44806, 0.12817, -0.03052, -98.52050, -6.87700, -3.28900,
24976, 565.00000, -78.00000, 2010.00000, 1.32599, 0.92163, -0.15259, -101.66000, -3.28900, -1.64450,
24983, 561.00000, -81.00000, 2009.00000, 1.32599, 0.79956, -0.09155, -101.66000, -3.28900, -1.64450,
24993, 557.00000, -81.00000, 2017.00000, 1.26495, 0.61646, -0.03052, -100.16500, -7.47500, -1.64450,
25002, 560.00000, -81.00000, 2013.00000, 1.38702, -0.29907, 0.09155, -100.16500, -7.47500, -1.64450,
25036, 564.00000, -80.00000, 2016.00000, 1.38702, -0.36011, 0.03052, -99.26800, -3.88700, -0.74750,
25085, 564.00000, -82.00000, 2011.00000, 1.26495, -0.36011, -0.09155, -97.17500, -6.42850, -3.58800,
25094, 589.00000, -78.00000, 2008.00000, 1.32599, -1.64185, 0.09155, -97.17500, -6.42850, -3.58800,
25134, 592.00000, -79.00000, 2007.00000, 1.32599, -1.09253, 0.09155, -97.17500, -6.42850, -3.58800,
25174, 572.00000, -76.00000, 2008.00000, 1.38702, 1.83716, -0.09155, -99.11850, -6.27900, -1.04650,
25214, 557.00000, -84.00000, 2012.00000, 1.38702, 0.37231, -0.03052, -99.11850, -6.72750, -1.34550,
25254, 558.00000, -80.00000, 2015.00000, 1.26495, -0.17700, -0.09155, -101.36100, -4.03650, 1.04650,
25261, 561.00000, -77.00000, 2016.00000, 1.44806, -0.54321, -0.03052, -101.36100, -4.03650, 1.04650,
25271, 560.00000, -77.00000, 2014.00000, 1.32599, -0.72632, -0.03052, -101.36100, -4.03650, 1.04650,
25280, 562.00000, -71.00000, 1976.00000, 1.26495, -0.66528, -0.03052, -101.36100, -4.03650, 1.04650,
25315, 587.00000, -81.00000, 2022.00000, 1.38702, -0.54321, -0.03052, -101.36100, -4.03650, 1.04650,
25347, 582.00000, -83.00000, 2013.00000, 1.32599, -0.54321, -0.09155, -101.36100, -4.03650, 1.04650,
25384, 579.00000, -79.00000, 2008.00000, 1.32599, 0.49438, -0.03052, -100.76300, -3.88700, -0.44850,
25390, 577.00000, -76.00000, 2015.00000, 1.50909, 0.67749, 0.03052, -100.76300, -3.88700, -0.44850,
25430, 570.00000, -79.00000, 2018.00000, 1.38702, 0.86060, -0.09155, -100.76300, -3.88700, -0.44850,
25436, 563.00000, -78.00000, 2017.00000, 1.38702, 0.73853, -0.09155, -100.01550, -3.88700, -0.74750,
25448, 561.00000, -82.00000, 2015.00000, 1.50909, 0.31128, -0.09155, -100.01550, -3.88700, -0.74750,
25456, 563.00000, -81.00000, 2018.00000, 1.38702, 0.12817, -0.09155, -100.01550, -3.88700, -0.74750,
25466, 563.00000, -83.00000, 2012.00000, 1.44806, -0.05493, -0.03052, -100.01550, -3.88700, -0.74750,
25474, 563.00000, -81.00000, 2009.00000, 1.38702, -0.17700, -0.03052, -100.01550, -3.88700, -0.74750,
25485, 571.00000, -85.00000, 2033.00000, 1.44806, -0.17700, -0.03052, -99.56700, -3.73750, -3.13950,
25496, 569.00000, -79.00000, 2013.00000, 1.26495, 0.31128, -0.03052, -99.56700, -3.73750, -3.13950,
25536, 561.00000, -79.00000, 2009.00000, 1.32599, -0.17700, -0.15259, -102.40750, -5.53150, 0.29900,
25543, 574.00000, -80.00000, 2006.00000, 1.32599, -1.09253, -0.03052, -102.40750, -5.53150, 0.29900,
25577, 575.00000, -79.00000, 2013.00000, 1.32599, 1.34888, -0.09155, -100.01550, -3.43850, -1.19600,
25659, 569.00000, -80.00000, 2012.00000, 1.44806, 1.28784, -0.03052, -100.01550, -3.43850, -1.19600,
25671, 565.00000, -79.00000, 2011.00000, 1.38702, 0.98267, -0.03052, -100.01550, -3.43850, -1.19600,
25680, 560.00000, -79.00000, 2015.00000, 1.38702, 0.00610, 0.03052, -101.66000, -3.28900, -0.59800,
25720, 561.00000, -82.00000, 2012.00000, 1.38702, -0.11597, -0.03052, -101.66000, -3.28900, -0.59800,
25727, 560.00000, -78.00000, 2017.00000, 1.44806, -0.29907, -0.03052, -101.66000, -3.28900, -0.59800,
25735, 565.00000, -81.00000, 2020.00000, 1.32599, -0.29907, 0.03052, -101.66000, -3.28900, -0.59800,
25747, 563.00000, -77.00000, 2017.00000, 1.32599, -0.29907, 0.03052, -101.66000, -3.28900, -0.59800,
25756, 564.00000, -80.00000, 2013.00000, 1.32599, -0.42114, -0.03052, -101.66000, -3.28900, -0.59800,
25766, 566.00000, -77.00000, 2015.00000, 1.38702, -0.42114, 0.03052, -101.66000, -3.28900, -0.59800,
25775, 568.00000, -78.00000, 2017.00000, 1.26495, -0.48218, -0.03052, -101.66000, -3.28900, -0.59800,
25784, 571.00000, -79.00000, 2015.00000, 1.38702, -0.60425, 0.03052, -101.66000, -3.28900, -0.59800,
25796, 572.00000, -79.00000, 2012.00000, 1.32599, -0.72632, 0.03052, -101.66000, -3.28900, -0.59800,
25804, 579.00000, -80.00000, 2013.00000, 1.44806, -0.84839, 0.03052, -101.66000, -3.28900, -0.59800,
25814, 581.00000, -80.00000, 2011.00000, 1.26495, -0.84839, 0.03052, -101.66000, -3.28900, -0.59800,
25822, 582.00000, -79.00000, 2007.00000, 1.44806, -0.72632, 0.03052, -101.66000, -3.28900, -0.59800,
25833, 583.00000, -80.00000, 2011.00000, 1.38702, 0.43335, 0.03052, -100.16500, -6.27900, -2.84050,
25873, 578.00000, -79.00000, 2013.00000, 1.50909, 0.98267, -0.03052, -100.16500, -6.27900, -2.84050,
25896, 564.00000, -77.00000, 2005.00000, 1.50909, 1.10474, -0.09155, -100.46400, -3.43850, -0.14950,
25903, 571.00000, -85.00000, 2029.00000, 1.50909, 1.16577, -0.09155, -100.46400, -3.43850, -0.14950,
25912, 572.00000, -79.00000, 2026.00000, 1.38702, 1.40991, -0.15259, -100.46400, -3.43850, -0.14950,
25922, 559.00000, -81.00000, 2012.00000, 1.38702, 0.92163, -0.21362, -100.46400, -3.43850, -0.14950,
25932, 561.00000, -77.00000, 2020.00000, 1.38702, 0.12817, -0.09155, -99.71650, -5.68100, -2.24250,
25972, 570.00000, -80.00000, 2017.00000, 1.32599, -0.60425, -0.09155, -99.71650, -5.68100, -2.24250,
25978, 570.00000, -79.00000, 2018.00000, 1.26495, -0.17700, -0.09155, -101.51050, -3.88700, -1.49500,
25988, 570.00000, -81.00000, 2019.00000, 1.38702, 0.00610, -0.09155, -101.51050, -3.88700, -1.49500,
25996, 570.00000, -74.00000, 2016.00000, 1.32599, -0.05493, -0.03052, -101.51050, -3.88700, -1.49500,
26008, 566.00000, -78.00000, 2007.00000, 1.32599, -0.60425, -0.03052, -101.51050, -3.88700, -1.49500,
26018, 573.00000, -77.00000, 2015.00000, 1.38702, -0.97046, 0.09155, -101.51050, -3.88700, -1.49500,
26027, 580.00000, -79.00000, 2022.00000, 1.32599, -0.84839, 0.03052, -101.06200, -4.63450, -1.19600,
26036, 580.00000, -80.00000, 2018.00000, 1.32599, -0.23804, -0.09155, -101.06200, -4.63450, -1.19600,
26045, 573.00000, -81.00000, 2002.00000, 1.26495, 0.00610, -0.15259, -101.06200, -4.63450, -1.19600,
26057, 576.00000, -79.00000, 2007.00000, 1.32599, 0.00610, -0.03052, -101.06200, -4.63450, -1.19600,
26065, 576.00000, -83.00000, 2010.00000, 1.26495, 0.00610, -0.09155, -101.06200, -4.63450, -1.19600,
26076, 578.00000, -81.00000, 2013.00000, 1.32599, -0.11597, 0.03052, -100.46400, -4.93350, -2.54150,
26083, 581.00000, -77.00000, 2012.00000, 1.32599, 0.37231, -0.09155, -100.46400, -4.93350, -2.54150,
26114, 575.00000, -80.00000, 2009.00000, 1.44806, 0.61646, -0.03052, -100.46400, -4.93350, -2.54150,
26152, 562.00000, -83.00000, 2017.00000, 1.32599, 0.92163, -0.09155, -98.96900, -5.68100, -1.49500,
26192, 563.00000, -79.00000, 2020.00000, 1.26495, -0.42114, 0.03052, -98.96900, -5.68100, -1.49500,
26232, 570.00000, -78.00000, 2012.00000, 1.26495, -0.42114, -0.09155, -98.96900, -5.68100, -1.49500,
26238, 570.00000, -81.00000, 2011.00000, 1.32599, -0.36011, -0.09155, -98.96900, -5.68100, -1.49500,
26247, 573.00000, -80.00000, 2013.00000, 1.32599, -0.36011, -0.03052, -98.96900, -5.68100, -1.49500,
26258, 573.00000, -81.00000, 2013.00000, 1.38702, -0.36011, -0.09155, -98.96900, -5.68100, -1.49500,
26268, 576.00000, -81.00000, 2016.00000, 1.38702, -0.23804, -0.03052, -98.96900, -5.68100, -1.49500,
26276, 575.00000, -79.00000, 2015.00000, 1.32599, -0.29907, -0.03052, -100.61349, -1.79400, -1.64450,
26287, 574.00000, -77.00000, 2010.00000, 1.32599, -0.48218, 0.03052, -100.61349, -1.79400, -1.64450,
26295, 577.00000, -77.00000, 2008.00000, 1.32599, -0.60425, -0.03052, -100.61349, -1.79400, -1.64450,
26307, 582.00000, -82.00000, 2013.00000, 1.38702, -0.29907, -0.03052, -100.61349, -1.79400, -1.64450,
26316, 583.00000, -86.00000, 2010.00000, 1.32599, 0.25024, -0.15259, -100.61349, -1.79400, -1.64450,
26325, 580.00000, -80.00000, 2009.00000, 1.38702, 0.61646, -0.09155, -101.36100, -5.53150, -1.64450,
26334, 567.00000, -80.00000, 2011.00000, 1.44806, 0.73853, -0.09155, -101.36100, -5.53150, -1.64450,
26364, 566.00000, -78.00000, 2009.00000, 1.50909, 0.61646, -0.03052, -101.36100, -5.53150, -1.64450,
26376, 567.00000, -81.00000, 2016.00000, 1.38702, 0.61646, -0.03052, -99.26800, -1.64450, -2.24250,
26416, 562.00000, -82.00000, 2012.00000, 1.32599, -0.05493, -0.09155, -99.26800, -1.64450, -2.24250,
26422, 563.00000, -82.00000, 2015.00000, 1.32599, -0.23804, -0.09155, -99.26800, -2.69100, -1.49500,
26431, 563.00000, -79.00000, 2019.00000, 1.32599, -0.36011, -0.03052, -99.26800, -2.69100, -1.49500,
26440, 564.00000, -83.00000, 2016.00000, 1.26495, -0.54321, -0.09155, -99.26800, -2.69100, -1.49500,
26452, 567.00000, -81.00000, 2014.00000, 1.38702, -0.66528, -0.03052, -99.26800, -2.69100, -1.49500,
26460, 571.00000, -84.00000, 2012.00000, 1.26495, -0.66528, -0.03052, -99.26800, -2.69100, -1.49500,
26471, 573.00000, -79.00000, 2017.00000, 1.38702, -0.78735, 0.03052, -101.36100, -4.78400, -1.64450,
26478, 577.00000, -83.00000, 2015.00000, 1.32599, -0.66528, -0.03052, -101.36100, -4.78400, -1.64450,
26489, 581.00000, -79.00000, 2012.00000, 1.38702, -0.42114, 0.03052, -101.36100, -4.78400, -1.64450,
26500, 582.00000, -81.00000, 2012.00000, 1.32599, -0.17700, -0.03052, -101.36100, -4.78400, -1.64450,
26509, 581.00000, -80.00000, 2013.00000, 1.38702, 0.06714, 0.03052, -101.36100, -4.78400, -1.64450,
26549, 574.00000, -80.00000, 2013.00000, 1.38702, 0.25024, -0.03052, -99.71650, -5.38200, -1.49500,
26605, 571.00000, -81.00000, 2013.00000, 1.32599, 0.61646, -0.09155, -100.91250, -4.48500, 0.59800,
26645, 564.00000, -79.00000, 2012.00000, 1.32599, 0.12817, -0.03052, -100.91250, -4.48500, 0.59800,
26685, 570.00000, -82.00000, 2012.00000, 1.32599, -0.36011, -0.03052, -100.91250, -4.48500, 0.59800,
26692, 569.00000, -82.00000, 2010.00000, 1.38702, -0.36011, -0.03052, -100.91250, -4.48500, 0.59800,
26700, 570.00000, -80.00000, 2014.00000, 1.38702, -0.29907, 0.03052, -100.91250, -4.48500, 0.59800,
26740, 572.00000, -79.00000, 2012.00000, 1.50909, -0.05493, 0.09155, -99.11850, -5.98000, -1.64450,
26780, 577.00000, -78.00000, 2016.00000, 1.38702, 0.00610, -0.03052, -100.76300, -3.43850, 1.94350,
26820, 570.00000, -79.00000, 2013.00000, 1.44806, 0.12817, -0.03052, -99.86600, -3.73750, 1.04650,
26860, 570.00000, -78.00000, 2011.00000, 1.38702, 0.31128, -0.15259, -99.86600, -3.73750, 1.04650,
26900, 563.00000, -80.00000, 2011.00000, 1.32599, 0.18921, -0.03052, -99.71650, -4.93350, -1.94350,
26940, 570.00000, -81.00000, 2011.00000, 1.26495, -0.48218, -0.03052, -100.91250, -6.72750, -1.64450,
26946, 572.00000, -80.00000, 2016.00000, 1.38702, -0.60425, -0.03052, -100.91250, -6.72750, -1.64450,
26958, 574.00000, -79.00000, 2009.00000, 1.32599, -0.48218, -0.09155, -100.91250, -6.72750, -1.64450,
26966, 574.00000, -79.00000, 2011.00000, 1.44806, -0.36011, -0.03052, -99.11850, -5.98000, -2.84050,
26977, 575.00000, -75.00000, 2011.00000, 1.32599, -0.17700, -0.03052, -99.11850, -5.98000, -2.84050,
26985, 575.00000, -78.00000, 2010.00000, 1.32599, -0.05493, 0.03052, -99.11850, -5.98000, -2.84050,
27025, 579.00000, -81.00000, 2025.00000, 1.44806, 0.00610, -0.03052, -100.76300, -3.13950, -1.94350,
27034, 580.00000, -77.00000, 2022.00000, 1.44806, 0.79956, -0.03052, -100.76300, -3.13950, -1.94350,
27043, 575.00000, -73.00000, 2011.00000, 1.38702, 0.98267, -0.03052, -100.76300, -3.13950, -1.94350,
27053, 572.00000, -68.00000, 2013.00000, 1.57013, 0.92163, -0.09155, -100.76300, -3.13950, -1.94350,
27062, 567.00000, -70.00000, 2012.00000, 1.38702, 0.73853, -0.09155, -100.76300, -3.13950, -1.94350,
27072, 562.00000, -74.00000, 2009.00000, 1.44806, 0.49438, -0.09155, -100.76300, -3.13950, -1.94350,
27083, 562.00000, -77.00000, 2015.00000, 1.26495, 0.55542, -0.15259, -100.76300, -3.13950, -1.94350,
27093, 559.00000, -85.00000, 2018.00000, 1.32599, 0.12817, -0.03052, -100.76300, -3.13950, -1.94350,
27122, 561.00000, -84.00000, 2010.00000, 1.26495, -0.72632, 0.09155, -100.76300, -3.13950, -1.94350,
27133, 565.00000, -87.00000, 2005.00000, 1.26495, -1.64185, 0.09155, -100.76300, -3.13950, -1.94350,
27141, 580.00000, -80.00000, 2017.00000, 1.44806, -2.00806, 0.09155, -100.76300, -3.13950, -1.94350,
27176, 574.00000, -76.00000, 2006.00000, 1.38702, 0.31128, -0.03052, -101.36100, -4.48500, -0.29900,
27183, 574.00000, -76.00000, 2010.00000, 1.32599, 0.43335, -0.09155, -101.36100, -4.48500, -0.29900,
27193, 570.00000, -82.00000, 2008.00000, 1.26495, 0.49438, -0.09155, -101.36100, -4.48500, -0.29900,
27202, 573.00000, -78.00000, 2014.00000, 1.38702, 0.31128, -0.03052, -101.36100, -4.48500, -0.29900,
27211, 573.00000, -77.00000, 2015.00000, 1.32599, 0.18921, -0.03052, -99.86600, -6.27900, -1.34550,
27251, 575.00000, -81.00000, 2008.00000, 1.32599, 0.18921, -0.03052, -99.86600, -6.27900, -1.34550,
27291, 561.00000, -74.00000, 2014.00000, 1.38702, 0.73853, -0.09155, -97.32450, -4.48500, -2.84050,
27331, 574.00000, -82.00000, 2019.00000, 1.38702, -0.66528, -0.03052, -101.36100, -3.73750, -0.29900,
27337, 577.00000, -83.00000, 2014.00000, 1.32599, -0.60425, -0.03052, -101.36100, -3.73750, -0.29900,
27348, 572.00000, -81.00000, 2017.00000, 1.32599, 0.12817, -0.03052, -101.80950, -3.13950, 1.94350,
27388, 570.00000, -81.00000, 2017.00000, 1.38702, 0.61646, -0.03052, -101.80950, -3.13950, 1.94350,
27428, 568.00000, -80.00000, 2011.00000, 1.38702, -0.23804, -0.03052, -101.06200, -5.38200, -0.44850,
27435, 571.00000, -80.00000, 2017.00000, 1.38702, -0.48218, -0.09155, -101.06200, -5.38200, -0.44850,
27445, 572.00000, -81.00000, 2014.00000, 1.26495, -0.48218, -0.09155, -101.06200, -5.38200, -0.44850,
27454, 573.00000, -78.00000, 2009.00000, 1.32599, -0.42114, -0.03052, -99.86600, -3.73750, -3.13950,
27465, 572.00000, -82.00000, 2009.00000, 1.26495, -0.23804, -0.03052, -99.86600, -3.73750, -3.13950,
27476, 574.00000, -82.00000, 2010.00000, 1.32599, -0.17700, 0.03052, -99.86600, -3.73750, -3.13950,
27516, 572.00000, -82.00000, 2014.00000, 1.38702, 0.18921, -0.03052, -99.86600, -3.73750, -3.13950,
27556, 565.00000, -83.00000, 2010.00000, 1.38702, 1.04370, -0.15259, -99.86600, -3.73750, -3.13950,
27596, 560.00000, -79.00000, 2016.00000, 1.38702, -0.78735, -0.03052, -99.86600, -3.73750, -3.13950,
27605, 578.00000, -74.00000, 2000.00000, 1.38702, -1.33667, 0.09155, -98.96900, -4.93350, -1.49500,
27645, 580.00000, -76.00000, 2006.00000, 1.38702, 0.18921, -0.03052, -98.96900, -4.93350, -1.49500,
27685, 566.00000, -81.00000, 2011.00000, 1.38702, 0.31128, -0.03052, -100.61349, -4.03650, -3.43850,
27692, 567.00000, -80.00000, 2014.00000, 1.38702, -0.17700, -0.03052, -100.61349, -4.03650, -3.43850,
27701, 569.00000, -84.00000, 2010.00000, 1.38702, -0.42114, -0.03052, -98.22150, -5.68100, -2.54150,
27715, 572.00000, -80.00000, 2013.00000, 1.38702, -0.17700, -0.03052, -98.22150, -5.68100, -2.54150,
27722, 575.00000, -81.00000, 2013.00000, 1.38702, 0.25024, -0.03052, -98.22150, -5.68100, -2.54150,
27762, 562.00000, -77.00000, 2016.00000, 1.20392, 0.18921, -0.03052, -101.36100, -4.78400, 0.00000,
27802, 586.00000, -78.00000, 2015.00000, 1.38702, 0.37231, -0.15259, -100.61349, -5.23250, -0.29900,
27833, 581.00000, -77.00000, 2014.00000, 1.44806, 0.61646, -0.09155, -100.61349, -5.23250, -0.29900,
27852, 572.00000, -76.00000, 2013.00000, 1.38702, 0.55542, -0.03052, -99.86600, -5.98000, -2.39200,
27930, 563.00000, -76.00000, 2017.00000, 1.26495, 0.31128, -0.09155, -97.17500, -5.68100, -3.58800,
27970, 564.00000, -81.00000, 2010.00000, 1.26495, -0.84839, 0.03052, -97.17500, -5.68100, -3.58800,
28010, 576.00000, -82.00000, 2018.00000, 1.32599, -0.97046, 0.03052, -97.17500, -5.68100, -3.58800,
28050, 587.00000, -73.00000, 2015.00000, 1.44806, -0.17700, 0.03052, -101.06200, -4.93350, 0.14950,
28090, 573.00000, -82.00000, 2010.00000, 1.32599, 0.67749, -0.03052, -96.12850, -6.12950, -3.58800,
28130, 566.00000, -77.00000, 2019.00000, 1.38702, 0.49438, -0.03052, -96.72650, -7.17600, -3.58800,
28209, 562.00000, -83.00000, 2015.00000, 1.38702, -0.72632, -0.03052, -97.92250, -6.42850, -3.28900,
28244, 566.00000, -80.00000, 2015.00000, 1.38702, -1.15356, 0.03052, -98.37099, -4.48500, -2.39200,
28284, 576.00000, -78.00000, 2015.00000, 1.38702, 0.79956, -0.15259, -97.47400, -6.87700, -4.33550,
28324, 580.00000, -78.00000, 2016.00000, 1.44806, -0.17700, 0.15259, -96.42750, -6.12950, -4.33550,
28364, 578.00000, -79.00000, 2016.00000, 1.38702, 0.49438, -0.03052, -96.42750, -6.12950, -4.33550,
28404, 560.00000, -83.00000, 2014.00000, 1.44806, 0.67749, -0.03052, -96.42750, -6.12950, -4.33550,
28486, 572.00000, -81.00000, 2010.00000, 1.32599, -0.05493, -0.09155, -96.42750, -6.12950, -4.33550,
28494, 576.00000, -81.00000, 2012.00000, 1.44806, -0.29907, 0.09155, -99.11850, -4.78400, -0.29900,
28534, 571.00000, -76.00000, 2016.00000, 1.38702, 0.79956, -0.09155, -96.72650, -6.87700, -4.78400,
28574, 569.00000, -76.00000, 2014.00000, 1.32599, 0.67749, -0.09155, -96.72650, -6.87700, -4.78400,
28614, 573.00000, -83.00000, 2012.00000, 1.38702, 0.49438, -0.03052, -100.76300, -5.38200, -0.44850,
28645, 561.00000, -78.00000, 2015.00000, 1.32599, 0.49438, -0.09155, -98.22150, -4.93350, -5.08300,
28731, 579.00000, -80.00000, 2011.00000, 1.32599, -0.48218, -0.03052, -95.82950, -7.47500, -4.18600,
28767, 581.00000, -81.00000, 2011.00000, 1.38702, -0.42114, -0.03052, -95.82950, -7.47500, -4.18600,
28776, 582.00000, -75.00000, 2011.00000, 1.38702, 0.18921, 0.03052, -95.82950, -8.22250, -3.13950,
28816, 579.00000, -78.00000, 2012.00000, 1.44806, 0.61646, 0.03052, -95.82950, -8.22250, -3.13950,
28856, 562.00000, -80.00000, 2014.00000, 1.38702, 0.98267, -0.03052, -101.36100, -4.48500, 0.29900,
28896, 561.00000, -80.00000, 2015.00000, 1.44806, -0.17700, -0.03052, -101.36100, -4.48500, 0.29900,
28904, 565.00000, -81.00000, 2019.00000, 1.44806, -0.11597, -0.03052, -101.36100, -4.48500, 0.29900,
28939, 571.00000, -83.00000, 1999.00000, 1.32599, -0.36011, 0.03052, -97.92250, -6.12950, -3.58800,
28993, 578.00000, -82.00000, 2010.00000, 1.44806, -0.29907, 0.03052, -97.92250, -6.12950, -3.58800,
29033, 582.00000, -74.00000, 2013.00000, 1.50909, 0.18921, -0.03052, -97.92250, -6.12950, -3.58800,
29073, 565.00000, -79.00000, 2013.00000, 1.32599, 1.04370, -0.09155, -100.46400, -4.63450, -0.44850,
29080, 562.00000, -80.00000, 2013.00000, 1.32599, 0.67749, -0.09155, -100.46400, -4.63450, -0.44850,
29117, 572.00000, -82.00000, 2016.00000, 1.38702, -0.84839, 0.03052, -100.01550, -4.93350, -1.19600,
29126, 574.00000, -79.00000, 2013.00000, 1.32599, -0.42114, -0.03052, -100.01550, -4.93350, -1.19600,
29135, 570.00000, -81.00000, 2011.00000, 1.38702, 0.12817, -0.03052, -99.86600, -4.48500, -0.59800,
29175, 566.00000, -80.00000, 2014.00000, 1.44806, 0.55542, -0.09155, -99.86600, -4.48500, -0.59800,
29215, 576.00000, -80.00000, 2012.00000, 1.38702, -0.84839, 0.03052, -101.06200, -3.43850, -1.19600,
29224, 576.00000, -82.00000, 2010.00000, 1.32599, -0.60425, 0.03052, -101.06200, -3.43850, -1.19600,
29234, 575.00000, -83.00000, 2010.00000, 1.32599, -0.23804, -0.09155, -97.92250, -6.87700, -2.54150,
29242, 573.00000, -83.00000, 2013.00000, 1.38702, 0.06714, -0.03052, -97.92250, -6.87700, -2.54150,
29282, 575.00000, -81.00000, 2013.00000, 1.44806, -0.17700, 0.03052, -97.92250, -6.87700, -2.54150,
29322, 567.00000, -76.00000, 2012.00000, 1.38702, 1.28784, -0.15259, -101.66000, -5.98000, 1.04650,
29362, 559.00000, -81.00000, 2016.00000, 1.32599, -0.60425, 0.03052, -101.66000, -5.98000, 1.04650,
29402, 579.00000, -78.00000, 2013.00000, 1.32599, 0.67749, -0.09155, -101.66000, -5.98000, 1.04650,
29457, 574.00000, -78.00000, 2015.00000, 1.50909, 0.06714, 0.03052, -95.38100, -5.68100, -4.33550,
29497, 575.00000, -81.00000, 2015.00000, 1.44806, 0.43335, -0.09155, -95.38100, -5.68100, -4.33550,
29537, 567.00000, -77.00000, 2020.00000, 1.38702, 0.25024, -0.09155, -103.15500, -3.73750, 0.00000,
29577, 569.00000, -77.00000, 2014.00000, 1.38702, -0.11597, -0.09155, -103.15500, -3.73750, 0.00000,
29585, 568.00000, -78.00000, 2015.00000, 1.32599, 0.12817, -0.09155, -99.26800, -2.69100, -0.74750,
29625, 567.00000, -81.00000, 2011.00000, 1.32599, -0.42114, -0.03052, -99.26800, -2.69100, -0.74750,
29633, 567.00000, -80.00000, 2012.00000, 1.38702, -0.78735, -0.03052, -99.11850, -8.22250, -1.34550,
29641, 571.00000, -80.00000, 2011.00000, 1.26495, -0.97046, -0.03052, -99.11850, -8.22250, -1.34550,
29654, 576.00000, -82.00000, 2010.00000, 1.26495, -0.72632, 0.03052, -99.11850, -8.22250, -1.34550,
29709, 567.00000, -77.00000, 2015.00000, 1.38702, 0.06714, -0.03052, -95.82950, -5.98000, -3.88700,
29749, 569.00000, -78.00000, 2012.00000, 1.38702, 0.00610, -0.09155, -95.82950, -5.98000, -3.88700,
29789, 568.00000, -78.00000, 2017.00000, 1.32599, 0.12817, -0.03052, -95.82950, -5.98000, -3.88700,
29829, 572.00000, -76.00000, 2017.00000, 1.38702, 0.00610, -0.03052, -95.82950, -5.98000, -3.88700,
29869, 570.00000, -78.00000, 2012.00000, 1.38702, -0.29907, -0.03052, -95.82950, -5.98000, -3.88700,
29876, 571.00000, -78.00000, 2012.00000, 1.32599, -0.54321, -0.03052, -99.26800, -4.63450, -1.49500,
29886, 573.00000, -80.00000, 2014.00000, 1.32599, -0.72632, -0.03052, -99.26800, -4.63450, -1.49500,
29895, 579.00000, -82.00000, 2012.00000, 1.26495, -0.72632, 0.03052, -99.26800, -4.63450, -1.49500,
29935, 579.00000, -80.00000, 2012.00000, 1.44806, 0.49438, -0.09155, -101.95900, -4.03650, -1.64450,
29945, 571.00000, -76.00000, 2012.00000, 1.32599, 0.73853, -0.03052, -101.95900, -4.03650, -1.64450,
29976, 566.00000, -77.00000, 2015.00000, 1.38702, 0.61646, -0.03052, -100.61349, -5.98000, -1.64450,
29992, 566.00000, -82.00000, 2015.00000, 1.38702, 0.31128, 0.03052, -100.61349, -5.98000, -1.64450,
30032, 567.00000, -81.00000, 2012.00000, 1.26495, -0.54321, -0.03052, -101.66000, -4.48500, 0.00000,
30039, 570.00000, -81.00000, 2016.00000, 1.38702, -0.60425, -0.03052, -101.66000, -4.48500, 0.00000,
30050, 571.00000, -80.00000, 2016.00000, 1.38702, -0.42114, -0.03052, -101.66000, -4.48500, 0.00000,
30060, 575.00000, -79.00000, 2016.00000, 1.38702, -0.36011, -0.03052, -101.66000, -4.48500, 0.00000,
30069, 577.00000, -77.00000, 2012.00000, 1.44806, -0.05493, -0.03052, -101.66000, -4.48500, 0.00000,
30078, 579.00000, -76.00000, 2016.00000, 1.44806, 0.00610, -0.09155, -99.56700, -6.72750, -1.64450,
30118, 572.00000, -79.00000, 2010.00000, 1.38702, 0.12817, -0.09155, -99.56700, -6.72750, -1.64450,
30158, 574.00000, -79.00000, 2013.00000, 1.38702, -0.23804, 0.03052, -98.96900, -6.42850, -1.94350,
30215, 569.00000, -75.00000, 2015.00000, 1.38702, 0.55542, -0.03052, -101.06200, -3.43850, -0.44850,
30248, 568.00000, -80.00000, 2018.00000, 1.38702, -0.17700, -0.09155, -101.06200, -3.43850, -0.44850,
30255, 568.00000, -79.00000, 2016.00000, 1.44806, -0.23804, -0.03052, -101.06200, -3.43850, -0.44850,
30263, 570.00000, -81.00000, 2011.00000, 1.38702, -0.29907, -0.03052, -101.06200, -3.43850, -0.44850,
30276, 572.00000, -79.00000, 2014.00000, 1.32599, -0.17700, -0.03052, -101.06200, -3.43850, -0.44850,
30285, 569.00000, -78.00000, 2014.00000, 1.26495, 0.00610, -0.09155, -101.06200, -3.43850, -0.44850,
30294, 570.00000, -77.00000, 2015.00000, 1.38702, 0.06714, -0.03052, -101.06200, -3.43850, -0.44850,
30304, 568.00000, -76.00000, 2012.00000, 1.38702, 0.06714, -0.09155, -101.06200, -3.43850, -0.44850,
30313, 568.00000, -80.00000, 2014.00000, 1.44806, -0.05493, -0.09155, -101.06200, -3.43850, -0.44850,
30325, 566.00000, -81.00000, 2016.00000, 1.38702, -0.23804, -0.03052, -100.01550, -5.68100, -0.74750,
30333, 571.00000, -79.00000, 2013.00000, 1.38702, -0.42114, -0.03052, -100.01550, -5.68100, -0.74750,
30344, 572.00000, -79.00000, 2013.00000, 1.32599, -0.48218, -0.03052, -100.01550, -5.68100, -0.74750,
30352, 576.00000, -79.00000, 2012.00000, 1.38702, -0.36011, 0.03052, -100.01550, -5.68100, -0.74750,
30363, 579.00000, -75.00000, 2011.00000, 1.32599, -0.23804, -0.03052, -100.01550, -5.68100, -0.74750,
30374, 580.00000, -76.00000, 2016.00000, 1.32599, -0.05493, -0.03052, -100.16500, -5.53150, 0.00000,
30383, 577.00000, -74.00000, 2015.00000, 1.32599, 0.18921, -0.03052, -100.16500, -5.53150, 0.00000,
30423, 570.00000, -82.00000, 2014.00000, 1.44806, 0.12817, -0.03052, -100.76300, -4.93350, 0.14950,
30467, 575.00000, -77.00000, 2017.00000, 1.38702, 0.25024, -0.09155, -100.46400, -5.38200, -3.28900,
30504, 567.00000, -78.00000, 2014.00000, 1.32599, -0.05493, 0.03052, -100.46400, -5.38200, -3.28900,
30513, 568.00000, -78.00000, 2016.00000, 1.38702, -0.17700, -0.09155, -100.46400, -5.38200, -3.28900,
30522, 570.00000, -78.00000, 2017.00000, 1.38702, -0.23804, -0.15259, -99.86600, -5.53150, -0.59800,
30532, 574.00000, -79.00000, 2018.00000, 1.38702, -0.17700, -0.09155, -99.86600, -5.53150, -0.59800,
30541, 575.00000, -79.00000, 2014.00000, 1.38702, -0.05493, -0.09155, -99.86600, -5.53150, -0.59800,
30550, 572.00000, -81.00000, 2013.00000, 1.38702, 0.06714, -0.09155, -99.86600, -5.53150, -0.59800,
30590, 568.00000, -81.00000, 2012.00000, 1.32599, -0.23804, -0.09155, -100.91250, -5.23250, -3.13950,
30597, 571.00000, -80.00000, 2011.00000, 1.32599, -0.36011, -0.09155, -100.91250, -5.23250, -3.13950,
30605, 573.00000, -78.00000, 2012.00000, 1.32599, -0.36011, -0.09155, -100.91250, -5.23250, -3.13950,
30616, 572.00000, -79.00000, 2012.00000, 1.32599, -0.42114, -0.03052, -100.01550, -6.12950, -2.54150,
30624, 574.00000, -77.00000, 2012.00000, 1.32599, -0.29907, -0.03052, -100.01550, -6.12950, -2.54150,
30636, 574.00000, -76.00000, 2011.00000, 1.26495, -0.05493, 0.03052, -100.01550, -6.12950, -2.54150,
30646, 575.00000, -77.00000, 2012.00000, 1.26495, 0.18921, -0.03052, -100.01550, -6.12950, -2.54150,
30655, 576.00000, -79.00000, 2008.00000, 1.26495, 0.25024, -0.03052, -100.01550, -6.12950, -2.54150,
30665, 574.00000, -80.00000, 2011.00000, 1.32599, 0.37231, -0.03052, -100.01550, -6.12950, -2.54150,
30674, 571.00000, -81.00000, 2012.00000, 1.32599, 0.37231, -0.09155, -100.01550, -6.12950, -2.54150,
30686, 572.00000, -81.00000, 2011.00000, 1.44806, 0.25024, -0.03052, -100.01550, -6.12950, -2.54150,
30694, 573.00000, -84.00000, 2012.00000, 1.44806, 0.31128, -0.03052, -100.01550, -6.12950, -2.54150,
30705, 568.00000, -78.00000, 2017.00000, 1.44806, 0.18921, 0.03052, -100.01550, -6.12950, -2.54150,
30745, 565.00000, -81.00000, 2015.00000, 1.38702, 0.18921, -0.03052, -100.01550, -6.12950, -2.54150,
30760, 567.00000, -80.00000, 2013.00000, 1.32599, 0.00610, -0.09155, -100.01550, -6.12950, -2.54150,
30769, 566.00000, -79.00000, 2015.00000, 1.38702, -0.11597, -0.03052, -98.52050, -7.62450, -0.74750,
30778, 569.00000, -78.00000, 2014.00000, 1.32599, -0.29907, 0.03052, -98.52050, -7.62450, -0.74750,
30818, 575.00000, -81.00000, 2013.00000, 1.38702, -0.36011, -0.03052, -100.91250, -4.03650, 1.04650,
30824, 576.00000, -80.00000, 2016.00000, 1.32599, -0.17700, -0.09155, -100.91250, -4.03650, 1.04650,
30833, 578.00000, -81.00000, 2014.00000, 1.32599, 0.00610, -0.09155, -100.91250, -4.03650, 1.04650,
30873, 575.00000, -83.00000, 2013.00000, 1.38702, 0.06714, -0.09155, -101.80950, -4.93350, -1.19600,
30880, 576.00000, -81.00000, 2014.00000, 1.32599, 0.00610, -0.03052, -101.80950, -4.93350, -1.19600,
30892, 574.00000, -80.00000, 2013.00000, 1.44806, 0.25024, -0.03052, -101.80950, -4.93350, -1.19600,
30901, 574.00000, -77.00000, 2012.00000, 1.44806, 0.49438, -0.09155, -101.80950, -4.93350, -1.19600,
30912, 572.00000, -79.00000, 2013.00000, 1.38702, 0.49438, -0.03052, -100.76300, -5.68100, -0.44850,
30924, 572.00000, -76.00000, 2014.00000, 1.38702, 0.49438, -0.03052, -100.76300, -5.68100, -0.44850,
30933, 570.00000, -79.00000, 2015.00000, 1.38702, 0.49438, -0.03052, -100.76300, -5.68100, -0.44850,
30943, 569.00000, -79.00000, 2017.00000, 1.32599, 0.37231, -0.03052, -100.76300, -5.68100, -0.44850,
30952, 566.00000, -79.00000, 2014.00000, 1.32599, 0.18921, -0.09155, -100.76300, -5.68100, -0.44850,
30961, 570.00000, -80.00000, 2015.00000, 1.44806, -0.23804, -0.03052, -100.16500, -5.98000, -0.59800,
30991, 570.00000, -79.00000, 2015.00000, 1.38702, -0.29907, 0.03052, -100.16500, -5.98000, -0.59800,
31016, 576.00000, -79.00000, 2015.00000, 1.38702, -0.17700, -0.09155, -101.36100, -4.03650, -0.59800,
31022, 573.00000, -80.00000, 2014.00000, 1.44806, -0.17700, -0.03052, -101.36100, -4.03650, -0.59800,
31032, 571.00000, -79.00000, 2013.00000, 1.32599, -0.17700, -0.03052, -101.36100, -4.03650, -0.59800,
31040, 571.00000, -78.00000, 2009.00000, 1.38702, -0.17700, -0.03052, -101.36100, -4.03650, -0.59800,
31052, 572.00000, -78.00000, 2011.00000, 1.26495, -0.11597, 0.03052, -101.36100, -4.03650, -0.59800,
31062, 574.00000, -78.00000, 2013.00000, 1.32599, -0.17700, -0.03052, -100.46400, -4.93350, -1.19600,
31071, 575.00000, -77.00000, 2016.00000, 1.38702, -0.11597, 0.03052, -100.46400, -4.93350, -1.19600,
31080, 572.00000, -79.00000, 2013.00000, 1.44806, 0.00610, -0.03052, -100.46400, -4.93350, -1.19600,
31089, 576.00000, -78.00000, 2013.00000, 1.50909, 0.00610, -0.03052, -100.46400, -4.93350, -1.19600,
31101, 578.00000, -80.00000, 2012.00000, 1.44806, 0.06714, -0.03052, -100.46400, -4.93350, -1.19600,
31109, 577.00000, -78.00000, 2015.00000, 1.38702, 0.00610, 0.03052, -100.46400, -4.93350, -1.19600,
31149, 567.00000, -80.00000, 2011.00000, 1.38702, 0.43335, -0.03052, -100.46400, -4.93350, -1.19600,
31155, 568.00000, -79.00000, 2013.00000, 1.38702, 0.43335, -0.03052, -100.46400, -4.93350, -1.19600,
31165, 566.00000, -81.00000, 2014.00000, 1.38702, 0.37231, 0.03052, -100.46400, -4.93350, -1.19600,
31205, 566.00000, -83.00000, 2013.00000, 1.44806, -0.29907, -0.09155, -100.46400, -4.93350, -1.19600,
31211, 572.00000, -79.00000, 2013.00000, 1.38702, -0.11597, 0.03052, -99.71650, -7.62450, -1.94350,
31251, 572.00000, -79.00000, 2012.00000, 1.32599, 0.18921, -0.03052, -99.71650, -7.62450, -1.94350,
31291, 571.00000, -78.00000, 2013.00000, 1.38702, -0.05493, -0.03052, -100.01550, -4.18600, -1.94350,
31298, 573.00000, -79.00000, 2012.00000, 1.38702, -0.11597, -0.09155, -100.01550, -4.18600, -1.94350,
31309, 570.00000, -78.00000, 2017.00000, 1.38702, -0.05493, -0.03052, -101.36100, -4.03650, -1.64450,
31319, 570.00000, -80.00000, 2015.00000, 1.32599, -0.05493, -0.03052, -101.36100, -4.03650, -1.64450,
31327, 572.00000, -76.00000, 2015.00000, 1.32599, 0.00610, -0.03052, -101.36100, -4.03650, -1.64450,
31338, 572.00000, -77.00000, 2011.00000, 1.32599, 0.00610, -0.09155, -101.36100, -4.03650, -1.64450,
31346, 570.00000, -76.00000, 2011.00000, 1.38702, 0.00610, -0.03052, -101.36100, -4.03650, -1.64450,
31358, 572.00000, -77.00000, 2013.00000, 1.38702, 0.12817, -0.09155, -100.76300, -4.63450, -1.19600,
31367, 575.00000, -78.00000, 2014.00000, 1.38702, 0.12817, -0.09155, -100.76300, -4.63450, -1.19600,
31376, 573.00000, -81.00000, 2013.00000, 1.32599, 0.25024, -0.09155, -100.76300, -4.63450, -1.19600,
31385, 572.00000, -78.00000, 2014.00000, 1.32599, 0.18921, -0.09155, -100.76300, -4.63450, -1.19600,
31394, 571.00000, -76.00000, 2016.00000, 1.38702, 0.18921, -0.03052, -100.76300, -4.63450, -1.19600,
31407, 570.00000, -79.00000, 2015.00000, 1.32599, 0.12817, -0.03052, -100.61349, -5.98000, -1.04650,
31414, 570.00000, -80.00000, 2017.00000, 1.32599, 0.00610, -0.03052, -100.61349, -5.98000, -1.04650,
31425, 569.00000, -79.00000, 2015.00000, 1.32599, -0.17700, -0.09155, -100.61349, -5.98000, -1.04650,
31433, 571.00000, -78.00000, 2013.00000, 1.38702, -0.23804, -0.03052, -100.61349, -5.98000, -1.04650,
31443, 572.00000, -81.00000, 2011.00000, 1.38702, -0.29907, 0.03052, -100.61349, -5.98000, -1.04650,
31454, 573.00000, -79.00000, 2015.00000, 1.38702, -0.29907, 0.03052, -100.46400, -4.18600, -2.24250,
31463, 575.00000, -77.00000, 2012.00000, 1.38702, 0.18921, -0.03052, -100.46400, -4.18600, -2.24250,
31493, 574.00000, -76.00000, 2013.00000, 1.38702, 0.31128, -0.03052, -100.46400, -4.18600, -2.24250,
31528, 567.00000, -81.00000, 2012.00000, 1.38702, 0.43335, -0.03052, -101.06200, -3.43850, -2.54150,
31535, 566.00000, -79.00000, 2013.00000, 1.38702, 0.25024, -0.03052, -101.06200, -3.43850, -2.54150,
31546, 567.00000, -79.00000, 2013.00000, 1.38702, 0.00610, -0.03052, -101.06200, -3.43850, -2.54150,
31556, 567.00000, -78.00000, 2013.00000, 1.38702, -0.17700, -0.03052, -101.66000, -2.24250, -1.34550,
31563, 570.00000, -78.00000, 2016.00000, 1.38702, -0.17700, -0.03052, -101.66000, -2.24250, -1.34550,
31575, 572.00000, -77.00000, 2015.00000, 1.38702, -0.17700, 0.03052, -101.66000, -2.24250, -1.34550,
31583, 571.00000, -77.00000, 2014.00000, 1.38702, -0.11597, 0.03052, -101.66000, -2.24250, -1.34550,
31592, 571.00000, -76.00000, 2015.00000, 1.38702, 0.00610, -0.03052, -101.66000, -2.24250, -1.34550,
31601, 574.00000, -77.00000, 2014.00000, 1.44806, -0.11597, -0.03052, -101.66000, -2.24250, -1.34550,
31635, 575.00000, -82.00000, 2011.00000, 1.32599, -0.36011, -0.03052, -96.27800, -5.53150, -4.93350,
31670, 576.00000, -78.00000, 2013.00000, 1.38702, -0.29907, -0.03052, -96.27800, -5.53150, -4.93350,
31679, 574.00000, -77.00000, 2011.00000, 1.44806, 0.25024, -0.09155, -95.82950, -5.98000, -4.48500,
31788, 565.00000, -82.00000, 2015.00000, 1.38702, 0.25024, -0.03052, -97.02550, -6.27900, -4.48500,
31828, 571.00000, -78.00000, 2011.00000, 1.26495, -0.60425, 0.03052, -94.48400, -7.02650, -4.48500,
31868, 575.00000, -81.00000, 2009.00000, 1.32599, 0.00610, -0.09155, -94.48400, -7.02650, -4.48500,
31908, 578.00000, -79.00000, 2015.00000, 1.38702, 0.00610, -0.03052, -100.76300, -4.63450, -0.74750,
31915, 575.00000, -76.00000, 2014.00000, 1.44806, 0.55542, -0.09155, -100.76300, -4.63450, -0.74750,
31953, 565.00000, -77.00000, 2014.00000, 1.32599, 0.37231, -0.03052, -101.06200, -3.88700, -0.74750,
31988, 571.00000, -79.00000, 2013.00000, 1.38702, -0.05493, -0.03052, -102.55700, -4.93350, 0.44850,
32073, 571.00000, -76.00000, 2016.00000, 1.38702, -0.36011, -0.03052, -95.82950, -6.27900, -4.48500,
32109, 573.00000, -79.00000, 2013.00000, 1.44806, -0.42114, -0.03052, -95.82950, -6.27900, -4.48500,
32118, 580.00000, -77.00000, 2016.00000, 1.38702, 0.18921, -0.09155, -96.57700, -7.02650, -4.18600,
32158, 574.00000, -79.00000, 2013.00000, 1.38702, 0.18921, 0.03052, -96.57700, -7.02650, -4.18600,
32198, 568.00000, -78.00000, 2016.00000, 1.26495, 0.43335, -0.09155, -101.51050, -4.18600, -0.44850,
32230, 568.00000, -79.00000, 2015.00000, 1.38702, 0.43335, -0.09155, -101.51050, -4.18600, -0.44850,
32239, 574.00000, -77.00000, 2014.00000, 1.38702, -0.23804, -0.03052, -95.53049, -7.47500, -3.43850,
32321, 577.00000, -78.00000, 2014.00000, 1.44806, -0.11597, -0.03052, -97.17500, -7.17600, -4.03650,
32357, 575.00000, -80.00000, 2014.00000, 1.32599, 0.12817, -0.09155, -97.17500, -7.17600, -4.03650,
32397, 576.00000, -80.00000, 2014.00000, 1.38702, 0.31128, -0.03052, -99.26800, -4.63450, -1.19600,
32437, 570.00000, -81.00000, 2015.00000, 1.38702, 0.37231, -0.03052, -99.26800, -4.63450, -1.19600,
32477, 571.00000, -81.00000, 2013.00000, 1.32599, -0.11597, 0.03052, -99.71650, -3.43850, -1.49500,
32517, 573.00000, -78.00000, 2017.00000, 1.26495, -0.05493, -0.03052, -99.71650, -3.43850, -1.49500,
32552, 573.00000, -80.00000, 2015.00000, 1.38702, -0.23804, -0.09155, -102.70650, -5.23250, -0.29900,
32558, 575.00000, -79.00000, 2013.00000, 1.38702, -0.17700, -0.09155, -102.70650, -5.23250, -0.29900,
32569, 571.00000, -80.00000, 2014.00000, 1.38702, -0.11597, -0.03052, -102.70650, -5.23250, -0.29900,
32577, 573.00000, -80.00000, 2015.00000, 1.44806, 0.00610, -0.09155, -95.82950, -7.47500, -3.43850,
32617, 575.00000, -76.00000, 2017.00000, 1.44806, -0.05493, -0.03052, -95.82950, -7.47500, -3.43850,
32629, 576.00000, -78.00000, 2012.00000, 1.44806, -0.11597, -0.03052, -95.82950, -7.47500, -3.43850,
32662, 573.00000, -78.00000, 2013.00000, 1.32599, 0.06714, 0.03052, -97.62350, -7.47500, -3.43850,
32702, 574.00000, -78.00000, 2017.00000, 1.44806, -0.05493, 0.03052, -97.62350, -7.47500, -3.43850,
32757, 569.00000, -74.00000, 2018.00000, 1.38702, 0.37231, 0.03052, -101.36100, -5.23250, 0.29900,
32797, 572.00000, -79.00000, 2016.00000, 1.26495, -0.42114, 0.03052, -102.40750, -5.23250, 0.29900,
32837, 576.00000, -77.00000, 2009.00000, 1.32599, -0.23804, -0.03052, -102.40750, -5.23250, 0.29900,
32843, 572.00000, -76.00000, 2013.00000, 1.38702, 0.37231, -0.09155, -99.86600, -4.48500, -0.29900,
32883, 570.00000, -75.00000, 2010.00000, 1.32599, 0.43335, -0.03052, -99.86600, -4.48500, -0.29900,
32923, 572.00000, -79.00000, 2013.00000, 1.38702, 0.18921, -0.03052, -99.86600, -4.48500, -0.29900,
32963, 568.00000, -77.00000, 2012.00000, 1.38702, -0.05493, -0.03052, -99.86600, -4.48500, -0.29900,
32970, 571.00000, -77.00000, 2013.00000, 1.44806, -0.05493, -0.03052, -99.86600, -4.48500, -0.29900,
32979, 571.00000, -77.00000, 2014.00000, 1.50909, -0.11597, -0.09155, -99.86600, -4.48500, -0.29900,
32988, 573.00000, -76.00000, 2016.00000, 1.44806, 0.00610, -0.03052, -100.91250, -2.99000, -1.34550,
32997, 572.00000, -79.00000, 2013.00000, 1.38702, -0.11597, -0.03052, -100.91250, -2.99000, -1.34550,
33027, 573.00000, -78.00000, 2009.00000, 1.32599, -0.29907, -0.03052, -100.91250, -2.99000, -1.34550,
33036, 574.00000, -78.00000, 2012.00000, 1.38702, -0.42114, -0.09155, -101.80950, -3.13950, -2.24250,
33044, 578.00000, -77.00000, 2014.00000, 1.38702, 0.00610, -0.03052, -101.80950, -3.13950, -2.24250,
33086, 574.00000, -80.00000, 2013.00000, 1.32599, 0.12817, -0.03052, -100.16500, -5.53150, -0.59800,
33096, 576.00000, -82.00000, 2010.00000, 1.32599, 0.25024, -0.03052, -100.16500, -5.53150, -0.59800,
33104, 578.00000, -81.00000, 2014.00000, 1.38702, 0.43335, -0.09155, -100.16500, -5.53150, -0.59800,
33115, 574.00000, -80.00000, 2013.00000, 1.32599, 0.55542, -0.09155, -100.16500, -5.53150, -0.59800,
33126, 570.00000, -80.00000, 2013.00000, 1.44806, 0.06714, -0.03052, -95.68000, -7.92350, -2.54150,
33166, 569.00000, -81.00000, 2015.00000, 1.44806, -0.05493, -0.03052, -95.68000, -7.92350, -2.54150,
33173, 570.00000, -78.00000, 2018.00000, 1.44806, -0.05493, 0.03052, -95.68000, -7.92350, -2.54150,
33213, 571.00000, -77.00000, 2014.00000, 1.38702, -0.05493, -0.03052, -99.56700, -5.98000, -1.34550,
33220, 569.00000, -78.00000, 2012.00000, 1.32599, -0.05493, -0.03052, -99.56700, -5.98000, -1.34550,
33231, 570.00000, -78.00000, 2017.00000, 1.38702, -0.11597, 0.03052, -99.11850, -5.23250, -0.29900,
33293, 572.00000, -77.00000, 2012.00000, 1.38702, 0.25024, -0.03052, -97.02550, -5.53150, -4.18600,
33333, 572.00000, -77.00000, 2013.00000, 1.38702, 0.25024, -0.03052, -99.26800, -5.68100, -2.24250,
33373, 567.00000, -74.00000, 2011.00000, 1.32599, 0.18921, -0.03052, -99.26800, -5.68100, -2.24250,
33413, 568.00000, -78.00000, 2013.00000, 1.32599, -0.11597, -0.09155, -99.26800, -5.68100, -2.24250,
33423, 571.00000, -80.00000, 2009.00000, 1.38702, -0.17700, -0.03052, -99.26800, -5.68100, -2.24250,
33431, 572.00000, -77.00000, 2013.00000, 1.38702, -0.17700, 0.03052, -99.26800, -5.68100, -2.24250,
33471, 576.00000, -80.00000, 2016.00000, 1.44806, 0.06714, -0.09155, -99.26800, -5.68100, -2.24250,
33515, 574.00000, -81.00000, 2013.00000, 1.32599, -0.17700, 0.03052, -98.96900, -4.18600, -2.54150,
33555, 574.00000, -82.00000, 2013.00000, 1.38702, 0.06714, -0.03052, -99.71650, -7.62450, -1.94350,
33595, 569.00000, -78.00000, 2017.00000, 1.38702, 0.49438, -0.03052, -101.80950, -6.12950, -0.74750,
33601, 567.00000, -73.00000, 2018.00000, 1.38702, 0.43335, -0.09155, -101.80950, -6.12950, -0.74750,
33610, 565.00000, -77.00000, 2012.00000, 1.38702, 0.18921, -0.09155, -101.80950, -6.12950, -0.74750,
33619, 566.00000, -76.00000, 2015.00000, 1.44806, -0.05493, -0.09155, -101.80950, -6.12950, -0.74750,
33628, 569.00000, -78.00000, 2015.00000, 1.38702, -0.29907, -0.03052, -98.52050, -5.38200, -0.74750,
33639, 571.00000, -77.00000, 2017.00000, 1.44806, -0.42114, 0.03052, -98.52050, -5.38200, -0.74750,
33679, 574.00000, -79.00000, 2012.00000, 1.38702, -0.17700, -0.03052, -100.76300, -4.18600, -1.19600,
33685, 573.00000, -77.00000, 2015.00000, 1.44806, -0.05493, -0.03052, -100.76300, -4.18600, -1.19600,
33695, 571.00000, -77.00000, 2015.00000, 1.38702, 0.12817, -0.03052, -100.76300, -4.18600, -1.19600,
33703, 572.00000, -79.00000, 2015.00000, 1.50909, 0.18921, -0.03052, -100.76300, -4.18600, -1.19600,
33715, 572.00000, -79.00000, 2012.00000, 1.44806, 0.31128, -0.09155, -100.76300, -4.18600, -1.19600,
33724, 571.00000, -80.00000, 2015.00000, 1.50909, 0.31128, 0.03052, -100.01550, -6.87700, -1.94350,
33767, 569.00000, -82.00000, 2009.00000, 1.38702, 0.06714, -0.03052, -100.01550, -6.87700, -1.94350,
33777, 569.00000, -80.00000, 2013.00000, 1.32599, 0.00610, -0.03052, -99.11850, -4.78400, -1.64450,
33817, 569.00000, -77.00000, 2015.00000, 1.32599, 0.00610, -0.03052, -99.11850, -4.78400, -1.64450,
33857, 570.00000, -77.00000, 2014.00000, 1.38702, -0.05493, 0.03052, -99.11850, -4.78400, -1.64450,
33897, 572.00000, -82.00000, 2012.00000, 1.44806, -0.42114, -0.03052, -99.11850, -4.78400, -1.64450,
33904, 574.00000, -79.00000, 2010.00000, 1.38702, -0.36011, -0.03052, -99.11850, -4.78400, -1.64450,
33912, 576.00000, -81.00000, 2009.00000, 1.44806, -0.17700, -0.03052, -99.11850, -4.78400, -1.64450,
33922, 577.00000, -78.00000, 2014.00000, 1.44806, 0.06714, -0.03052, -99.11850, -4.78400, -1.64450,
33962, 568.00000, -76.00000, 2015.00000, 1.38702, 0.49438, -0.03052, -101.06200, -4.93350, -1.94350,
33968, 566.00000, -77.00000, 2014.00000, 1.38702, 0.31128, -0.03052, -101.06200, -4.93350, -1.94350,
33977, 569.00000, -77.00000, 2017.00000, 1.38702, 0.12817, -0.09155, -100.46400, -6.12950, -2.24250,
33986, 571.00000, -75.00000, 2017.00000, 1.32599, 0.00610, -0.03052, -100.46400, -6.12950, -2.24250,
33995, 570.00000, -79.00000, 2015.00000, 1.32599, -0.05493, -0.03052, -100.46400, -6.12950, -2.24250,
34006, 571.00000, -78.00000, 2015.00000, 1.32599, -0.11597, -0.03052, -98.37099, -4.48500, -3.43850,
34036, 570.00000, -79.00000, 2011.00000, 1.32599, -0.11597, -0.03052, -98.37099, -4.48500, -3.43850,
34044, 569.00000, -80.00000, 2012.00000, 1.32599, -0.17700, 0.03052, -98.37099, -4.48500, -3.43850,
34084, 571.00000, -80.00000, 2014.00000, 1.38702, -0.11597, -0.09155, -101.66000, -4.03650, 0.29900,
34090, 572.00000, -79.00000, 2014.00000, 1.38702, -0.05493, -0.09155, -101.66000, -4.03650, 0.29900,
34102, 573.00000, -76.00000, 2014.00000, 1.38702, 0.00610, -0.09155, -101.66000, -4.03650, 0.29900,
34142, 572.00000, -76.00000, 2013.00000, 1.38702, 0.00610, 0.03052, -100.61349, -4.78400, -0.59800,
34182, 570.00000, -78.00000, 2012.00000, 1.44806, 0.31128, -0.03052, -102.70650, -4.78400, -0.29900,
34189, 569.00000, -81.00000, 2014.00000, 1.44806, 0.43335, -0.03052, -102.70650, -4.78400, -0.29900,
34198, 568.00000, -81.00000, 2013.00000, 1.44806, 0.43335, 0.03052, -102.70650, -4.78400, -0.29900,
34238, 568.00000, -79.00000, 2015.00000, 1.38702, -0.42114, -0.09155, -100.61349, -5.23250, 0.59800,
34244, 571.00000, -81.00000, 2013.00000, 1.32599, -0.48218, -0.03052, -100.61349, -5.23250, 0.59800,
34254, 573.00000, -81.00000, 2012.00000, 1.38702, -0.36011, 0.03052, -100.61349, -5.23250, 0.59800,
34294, 572.00000, -77.00000, 2015.00000, 1.32599, 0.06714, -0.03052, -102.70650, -5.98000, 0.00000,
34334, 577.00000, -78.00000, 2014.00000, 1.38702, 0.12817, -0.03052, -102.70650, -5.98000, 0.00000,
34374, 573.00000, -81.00000, 2012.00000, 1.32599, -0.11597, -0.03052, -102.70650, -5.98000, 0.00000,
34380, 573.00000, -81.00000, 2014.00000, 1.32599, 0.00610, -0.03052, -102.70650, -5.98000, 0.00000,
34420, 572.00000, -78.00000, 2012.00000, 1.38702, 0.25024, -0.15259, -100.76300, -4.18600, -1.19600,
34426, 570.00000, -77.00000, 2013.00000, 1.38702, 0.25024, -0.09155, -100.76300, -4.18600, -1.19600,
34435, 570.00000, -79.00000, 2017.00000, 1.38702, 0.31128, -0.03052, -100.76300, -4.18600, -1.19600,
34446, 568.00000, -82.00000, 2017.00000, 1.32599, 0.31128, -0.03052, -100.76300, -4.18600, -1.19600,
34457, 567.00000, -81.00000, 2014.00000, 1.38702, 0.25024, -0.09155, -100.76300, -4.18600, -1.19600,
34465, 565.00000, -83.00000, 2013.00000, 1.32599, 0.18921, -0.09155, -100.46400, -6.12950, -2.99000,
34476, 568.00000, -80.00000, 2016.00000, 1.38702, 0.00610, -0.03052, -100.46400, -6.12950, -2.99000,
34484, 567.00000, -82.00000, 2016.00000, 1.32599, -0.17700, -0.03052, -100.46400, -6.12950, -2.99000,
34496, 572.00000, -82.00000, 2012.00000, 1.44806, -0.42114, 0.03052, -100.46400, -6.12950, -2.99000,
34505, 571.00000, -80.00000, 2014.00000, 1.38702, -0.42114, 0.03052, -100.46400, -6.12950, -2.99000,
34515, 575.00000, -78.00000, 2013.00000, 1.38702, 0.00610, -0.03052, -98.96900, -6.12950, -2.99000,
34555, 573.00000, -77.00000, 2014.00000, 1.38702, 0.18921, -0.03052, -98.96900, -6.12950, -2.99000,
34595, 576.00000, -80.00000, 2011.00000, 1.32599, -0.23804, 0.03052, -101.80950, -5.38200, -0.44850,
34605, 575.00000, -80.00000, 2013.00000, 1.38702, -0.23804, -0.03052, -101.80950, -5.38200, -0.44850,
34613, 576.00000, -78.00000, 2011.00000, 1.32599, -0.05493, -0.03052, -98.37099, -6.27900, -2.09300,
34624, 575.00000, -77.00000, 2012.00000, 1.38702, 0.12817, -0.03052, -98.37099, -6.27900, -2.09300,
34664, 566.00000, -77.00000, 2012.00000, 1.32599, 0.43335, -0.09155, -98.37099, -6.27900, -2.09300,
34704, 567.00000, -79.00000, 2012.00000, 1.32599, -0.36011, 0.03052, -98.96900, -2.69100, -0.74750,
34744, 576.00000, -81.00000, 2013.00000, 1.32599, -0.29907, -0.15259, -99.56700, -4.03650, -2.39200,
34750, 573.00000, -82.00000, 2007.00000, 1.26495, -0.17700, -0.03052, -99.56700, -4.03650, -2.39200,
34759, 576.00000, -78.00000, 2008.00000, 1.38702, -0.05493, -0.03052, -99.56700, -4.03650, -2.39200,
34769, 572.00000, -79.00000, 2013.00000, 1.38702, 0.43335, -0.03052, -99.56700, -4.03650, -2.39200,
34809, 573.00000, -76.00000, 2012.00000, 1.32599, 0.43335, -0.03052, -99.56700, -4.03650, -2.39200,
34849, 571.00000, -78.00000, 2014.00000, 1.32599, -0.60425, -0.03052, -99.56700, -4.03650, -2.39200,
34856, 571.00000, -79.00000, 2013.00000, 1.32599, -0.60425, -0.03052, -99.56700, -4.03650, -2.39200,
34864, 572.00000, -75.00000, 2016.00000, 1.44806, -0.42114, -0.09155, -100.91250, -4.48500, 0.29900,
34874, 575.00000, -77.00000, 2015.00000, 1.38702, -0.17700, -0.09155, -100.91250, -4.48500, 0.29900,
34883, 576.00000, -78.00000, 2013.00000, 1.38702, 0.12817, -0.03052, -100.91250, -4.48500, 0.29900,
34923, 571.00000, -81.00000, 2014.00000, 1.44806, 0.43335, -0.03052, -101.51050, -4.63450, 0.44850,
34963, 573.00000, -80.00000, 2019.00000, 1.32599, 0.06714, -0.03052, -101.80950, -4.18600, -0.14950,
34969, 573.00000, -77.00000, 2019.00000, 1.32599, -0.05493, -0.03052, -101.80950, -4.18600, -0.14950,
34980, 569.00000, -78.00000, 2018.00000, 1.26495, -0.11597, -0.03052, -101.80950, -4.18600, -0.14950,
34988, 570.00000, -79.00000, 2015.00000, 1.32599, -0.11597, 0.03052, -101.80950, -4.18600, -0.14950,
35000, 567.00000, -79.00000, 2013.00000, 1.32599, -0.11597, -0.09155, -101.80950, -4.18600, -0.14950,
35009, 569.00000, -82.00000, 2012.00000, 1.38702, -0.11597, 0.03052, -99.86600, -4.03650, -1.64450,
35049, 573.00000, -78.00000, 2012.00000, 1.38702, -0.11597, -0.03052, -99.86600, -4.03650, -1.64450,
35056, 573.00000, -78.00000, 2014.00000, 1.44806, -0.11597, -0.03052, -99.86600, -4.03650, -1.64450,
35066, 572.00000, -81.00000, 2012.00000, 1.38702, -0.17700, 0.03052, -99.71650, -7.17600, -2.54150,
35106, 576.00000, -77.00000, 2010.00000, 1.38702, 0.06714, -0.03052, -99.71650, -7.17600, -2.54150,
35146, 573.00000, -79.00000, 2013.00000, 1.44806, 0.43335, 0.03052, -99.86600, -8.22250, -0.59800,
35186, 570.00000, -78.00000, 2019.00000, 1.50909, 0.00610, -0.09155, -100.91250, -4.48500, -1.34550,
35192, 573.00000, -79.00000, 2015.00000, 1.38702, -0.11597, -0.03052, -100.91250, -4.48500, -1.34550,
35203, 574.00000, -79.00000, 2014.00000, 1.38702, -0.29907, -0.03052, -100.91250, -4.48500, -1.34550,
35214, 570.00000, -75.00000, 2014.00000, 1.32599, -0.23804, 0.03052, -98.37099, -7.02650, -2.09300,
35254, 570.00000, -78.00000, 2012.00000, 1.38702, 0.06714, -0.09155, -98.37099, -7.02650, -2.09300,
35294, 573.00000, -80.00000, 2013.00000, 1.44806, -0.05493, -0.03052, -98.37099, -7.02650, -2.09300,
35300, 574.00000, -79.00000, 2010.00000, 1.38702, -0.11597, -0.03052, -98.37099, -7.02650, -2.09300,
35309, 574.00000, -80.00000, 2015.00000, 1.44806, -0.05493, -0.03052, -98.37099, -7.02650, -2.09300,
35320, 572.00000, -81.00000, 2015.00000, 1.38702, 0.00610, -0.03052, -98.37099, -7.02650, -2.09300,
35360, 573.00000, -80.00000, 2016.00000, 1.44806, 0.00610, -0.09155, -101.80950, -5.38200, -0.14950,
35368, 571.00000, -81.00000, 2014.00000, 1.32599, 0.00610, -0.03052, -101.80950, -5.38200, -0.14950,
35377, 573.00000, -77.00000, 2015.00000, 1.38702, 0.06714, 0.03052, -101.80950, -5.38200, -0.14950,
35417, 572.00000, -79.00000, 2015.00000, 1.38702, 0.18921, -0.03052, -101.66000, -3.28900, 0.59800,
35457, 569.00000, -78.00000, 2016.00000, 1.32599, -0.11597, -0.03052, -100.91250, -3.28900, -0.59800,
35464, 569.00000, -78.00000, 2016.00000, 1.32599, -0.23804, -0.09155, -100.91250, -3.28900, -0.59800,
35474, 571.00000, -78.00000, 2012.00000, 1.38702, -0.17700, -0.09155, -100.91250, -3.28900, -0.59800,
35483, 573.00000, -77.00000, 2012.00000, 1.38702, -0.11597, -0.03052, -100.91250, -3.28900, -0.59800,
35493, 570.00000, -78.00000, 2009.00000, 1.32599, -0.05493, -0.03052, -100.91250, -3.28900, -0.59800,
35505, 572.00000, -78.00000, 2013.00000, 1.44806, 0.06714, 0.03052, -100.76300, -3.43850, -0.74750,
35545, 573.00000, -80.00000, 2013.00000, 1.44806, -0.05493, -0.03052, -100.76300, -3.43850, -0.74750,
35552, 572.00000, -77.00000, 2012.00000, 1.32599, -0.05493, 0.03052, -100.76300, -3.43850, -0.74750,
