//--------- NEW START ---------//
// Drifter number: 1, Battery: 3.61
// IMU_update: 40 ms, GPS_update: 250 ms, Transciever_update: 8000 ms
// Accel_range: 16G, Gyro_range: 2000 dps
IMUtime, Ax, Ay, Az, Gx, Gy, Gz, Mx, My, Mz, P, T
8815, 134.00000, -339.00000, 2072.00000, 1.44806, 0.12817, 0.09155, -104.35100, -7.62450, 13.8929, 134.00000, -339.00000, 2072.00000, 1.50909, 0.12817, 0.09155, -104.35100, -7.62450, 13.8969, 131.00000, -341.00000, 2074.00000, 1.44806, 0.18921, 0.03052, -104.50050, -5.98000, 13.9009, 131.00000, -340.00000, 2075.00000, 1.44806, 0.06714, -0.03052, -104.50050, -5.98000, 139049, 130.00000, -340.00000, 2072.00000, 1.44806, 0.06714, 0.09155, -103.90250, -5.98000, 12.9096, 130.00000, -342.00000, 2071.00000, 1.50909, 0.12817, 0.03052, -101.06200, -1.64450, 9.79136, 132.00000, -344.00000, 2072.00000, 1.50909, 0.12817, 0.03052, -101.06200, -1.64450, 9.79176, 132.00000, -338.00000, 2074.00000, 1.44806, 0.06714, -0.03052, -105.09850, -6.87700, 119216, 129.00000, -339.00000, 2077.00000, 1.44806, 0.12817, -0.03052, -104.50050, -4.78400, 129256, 131.00000, -340.00000, 2077.00000, 1.44806, 0.31128, 0.09155, -104.50050, -6.72750, 12.9296, 134.00000, -340.00000, 2072.00000, 1.44806, 0.00610, 0.09155, -104.50050, -6.72750, 12.9346, 129.00000, -342.00000, 2072.00000, 1.44806, 0.06714, 0.09155, -104.50050, -6.72750, 12.9386, 130.00000, -341.00000, 2073.00000, 1.50909, 0.12817, 0.03052, -104.50050, -6.72750, 12.9426, 131.00000, -341.00000, 2073.00000, 1.50909, 0.18921, 0.03052, -103.60350, -6.12950, 11.9466, 131.00000, -340.00000, 2075.00000, 1.38702, 0.06714, 0.09155, -104.35100, -7.17600, 12.9506, 132.00000, -341.00000, 2077.00000, 1.44806, 0.06714, -0.03052, -103.60350, -6.87700, 129546, 135.00000, -341.00000, 2077.00000, 1.50909, 0.18921, 0.09155, -104.35100, -7.17600, 11.9592, 132.00000, -340.00000, 2079.00000, 1.44806, 0.12817, 0.03052, -101.95900, -2.54150, 11.9632, 132.00000, -341.00000, 2074.00000, 1.38702, 0.06714, 0.09155, -101.95900, -2.54150, 11.9672, 135.00000, -339.00000, 2073.00000, 1.38702, 0.12817, 0.09155, -101.95900, -2.54150, 11.9712, 131.00000, -343.00000, 2075.00000, 1.44806, 0.12817, 0.03052, -104.50050, -7.02650, 10.9752, 133.00000, -341.00000, 2075.00000, 1.44806, 0.00610, 0.09155, -103.60350, -7.17600, 11.9792, 131.00000, -340.00000, 2074.00000, 1.38702, 0.06714, 0.03052, -104.35100, -6.12950, 11.9842, 131.00000, -338.00000, 2074.00000, 1.44806, 0.06714, 0.09155, -103.30450, -2.69100, 10.9882, 132.00000, -341.00000, 2074.00000, 1.50909, 0.12817, 0.03052, -103.30450, -2.69100, 10.46500

8929, 134.00000, -339.00000, 2072.00000, 1.50909, 0.12817, 0.09155, -104.35100, -7.62450, 13.8969, 131.00000, -341.00000, 2074.00000, 1.44806, 0.18921, 0.03052, -104.50050, -5.98000, 13.9009, 131.00000, -340.00000, 2075.00000, 1.44806, 0.06714, -0.03052, -104.50050, -5.98000, 139049, 130.00000, -340.00000, 2072.00000, 1.44806, 0.06714, 0.09155, -103.90250, -5.98000, 12.9096, 130.00000, -342.00000, 2071.00000, 1.50909, 0.12817, 0.03052, -101.06200, -1.64450, 9.79136, 132.00000, -344.00000, 2072.00000, 1.50909, 0.12817, 0.03052, -101.06200, -1.64450, 9.79176, 132.00000, -338.00000, 2074.00000, 1.44806, 0.06714, -0.03052, -105.09850, -6.87700, 119216, 129.00000, -339.00000, 2077.00000, 1.44806, 0.12817, -0.03052, -104.50050, -4.78400, 129256, 131.00000, -340.00000, 2077.00000, 1.44806, 0.31128, 0.09155, -104.50050, -6.72750, 12.9296, 134.00000, -340.00000, 2072.00000, 1.44806, 0.00610, 0.09155, -104.50050, -6.72750, 12.9346, 129.00000, -342.00000, 2072.00000, 1.44806, 0.06714, 0.09155, -104.50050, -6.72750, 12.9386, 130.00000, -341.00000, 2073.00000, 1.50909, 0.12817, 0.03052, -104.50050, -6.72750, 12.9426, 131.00000, -341.00000, 2073.00000, 1.50909, 0.18921, 0.03052, -103.60350, -6.12950, 11.9466, 131.00000, -340.00000, 2075.00000, 1.38702, 0.06714, 0.09155, -104.35100, -7.17600, 12.9506, 132.00000, -341.00000, 2077.00000, 1.44806, 0.06714, -0.03052, -103.60350, -6.87700, 129546, 135.00000, -341.00000, 2077.00000, 1.50909, 0.18921, 0.09155, -104.35100, -7.17600, 11.9592, 132.00000, -340.00000, 2079.00000, 1.44806, 0.12817, 0.03052, -101.95900, -2.54150, 11.9632, 132.00000, -341.00000, 2074.00000, 1.38702, 0.06714, 0.09155, -101.95900, -2.54150, 11.9672, 135.00000, -339.00000, 2073.00000, 1.38702, 0.12817, 0.09155, -101.95900, -2.54150, 11.9712, 131.00000, -343.00000, 2075.00000, 1.44806, 0.12817, 0.03052, -104.50050, -7.02650, 10.9752, 133.00000, -341.00000, 2075.00000, 1.44806, 0.00610, 0.09155, -103.60350, -7.17600, 11.9792, 131.00000, -340.00000, 2074.00000, 1.38702, 0.06714, 0.03052, -104.35100, -6.12950, 11.9842, 131.00000, -338.00000, 2074.00000, 1.44806, 0.06714, 0.09155, -103.30450, -2.69100, 10.9882, 132.00000, -341.00000, 2074.00000, 1.50909, 0.12817, 0.03052, -103.30450, -2.69100, 10.46500

8969, 131.00000, -341.00000, 2074.00000, 1.44806, 0.18921, 0.03052, -104.50050, -5.98000, 13.9009, 131.00000, -340.00000, 2075.00000, 1.44806, 0.06714, -0.03052, -104.50050, -5.98000, 139049, 130.00000, -340.00000, 2072.00000, 1.44806, 0.06714, 0.09155, -103.90250, -5.98000, 12.9096, 130.00000, -342.00000, 2071.00000, 1.50909, 0.12817, 0.03052, -101.06200, -1.64450, 9.79136, 132.00000, -344.00000, 2072.00000, 1.50909, 0.12817, 0.03052, -101.06200, -1.64450, 9.79176, 132.00000, -338.00000, 2074.00000, 1.44806, 0.06714, -0.03052, -105.09850, -6.87700, 119216, 129.00000, -339.00000, 2077.00000, 1.44806, 0.12817, -0.03052, -104.50050, -4.78400, 129256, 131.00000, -340.00000, 2077.00000, 1.44806, 0.31128, 0.09155, -104.50050, -6.72750, 12.9296, 134.00000, -340.00000, 2072.00000, 1.44806, 0.00610, 0.09155, -104.50050, -6.72750, 12.9346, 129.00000, -342.00000, 2072.00000, 1.44806, 0.06714, 0.09155, -104.50050, -6.72750, 12.9386, 130.00000, -341.00000, 2073.00000, 1.50909, 0.12817, 0.03052, -104.50050, -6.72750, 12.9426, 131.00000, -341.00000, 2073.00000, 1.50909, 0.18921, 0.03052, -103.60350, -6.12950, 11.9466, 131.00000, -340.00000, 2075.00000, 1.38702, 0.06714, 0.09155, -104.35100, -7.17600, 12.9506, 132.00000, -341.00000, 2077.00000, 1.44806, 0.06714, -0.03052, -103.60350, -6.87700, 129546, 135.00000, -341.00000, 2077.00000, 1.50909, 0.18921, 0.09155, -104.35100, -7.17600, 11.9592, 132.00000, -340.00000, 2079.00000, 1.44806, 0.12817, 0.03052, -101.95900, -2.54150, 11.9632, 132.00000, -341.00000, 2074.00000, 1.38702, 0.06714, 0.09155, -101.95900, -2.54150, 11.9672, 135.00000, -339.00000, 2073.00000, 1.38702, 0.12817, 0.09155, -101.95900, -2.54150, 11.9712, 131.00000, -343.00000, 2075.00000, 1.44806, 0.12817, 0.03052, -104.50050, -7.02650, 10.9752, 133.00000, -341.00000, 2075.00000, 1.44806, 0.00610, 0.09155, -103.60350, -7.17600, 11.9792, 131.00000, -340.00000, 2074.00000, 1.38702, 0.06714, 0.03052, -104.35100, -6.12950, 11.9842, 131.00000, -338.00000, 2074.00000, 1.44806, 0.06714, 0.09155, -103.30450, -2.69100, 10.9882, 132.00000, -341.00000, 2074.00000, 1.50909, 0.12817, 0.03052, -103.30450, -2.69100, 10.46500

9009, 131.00000, -340.00000, 2075.00000, 1.44806, 0.06714, -0.03052, -104.50050, -5.98000, 139049, 130.00000, -340.00000, 2072.00000, 1.44806, 0.06714, 0.09155, -103.90250, -5.98000, 12.9096, 130.00000, -342.00000, 2071.00000, 1.50909, 0.12817, 0.03052, -101.06200, -1.64450, 9.79136, 132.00000, -344.00000, 2072.00000, 1.50909, 0.12817, 0.03052, -101.06200, -1.64450, 9.79176, 132.00000, -338.00000, 2074.00000, 1.44806, 0.06714, -0.03052, -105.09850, -6.87700, 119216, 129.00000, -339.00000, 2077.00000, 1.44806, 0.12817, -0.03052, -104.50050, -4.78400, 129256, 131.00000, -340.00000, 2077.00000, 1.44806, 0.31128, 0.09155, -104.50050, -6.72750, 12.9296, 134.00000, -340.00000, 2072.00000, 1.44806, 0.00610, 0.09155, -104.50050, -6.72750, 12.9346, 129.00000, -342.00000, 2072.00000, 1.44806, 0.06714, 0.09155, -104.50050, -6.72750, 12.9386, 130.00000, -341.00000, 2073.00000, 1.50909, 0.12817, 0.03052, -104.50050, -6.72750, 12.9426, 131.00000, -341.00000, 2073.00000, 1.50909, 0.18921, 0.03052, -103.60350, -6.12950, 11.9466, 131.00000, -340.00000, 2075.00000, 1.38702, 0.06714, 0.09155, -104.35100, -7.17600, 12.9506, 132.00000, -341.00000, 2077.00000, 1.44806, 0.06714, -0.03052, -103.60350, -6.87700, 129546, 135.00000, -341.00000, 2077.00000, 1.50909, 0.18921, 0.09155, -104.35100, -7.17600, 11.9592, 132.00000, -340.00000, 2079.00000, 1.44806, 0.12817, 0.03052, -101.95900, -2.54150, 11.9632, 132.00000, -341.00000, 2074.00000, 1.38702, 0.06714, 0.09155, -101.95900, -2.54150, 11.9672, 135.00000, -339.00000, 2073.00000, 1.38702, 0.12817, 0.09155, -101.95900, -2.54150, 11.9712, 131.00000, -343.00000, 2075.00000, 1.44806, 0.12817, 0.03052, -104.50050, -7.02650, 10.9752, 133.00000, -341.00000, 2075.00000, 1.44806, 0.00610, 0.09155, -103.60350, -7.17600, 11.9792, 131.00000, -340.00000, 2074.00000, 1.38702, 0.06714, 0.03052, -104.35100, -6.12950, 11.9842, 131.00000, -338.00000, 2074.00000, 1.44806, 0.06714, 0.09155, -103.30450, -2.69100, 10.9882, 132.00000, -341.00000, 2074.00000, 1.50909, 0.12817, 0.03052, -103.30450, -2.69100, 10.46500

9049, 130.00000, -340.00000, 2072.00000, 1.44806, 0.06714, 0.09155, -103.90250, -5.98000, 12.9096, 130.00000, -342.00000, 2071.00000, 1.50909, 0.12817, 0.03052, -101.06200, -1.64450, 9.79136, 132.00000, -344.00000, 2072.00000, 1.50909, 0.12817, 0.03052, -101.06200, -1.64450, 9.79176, 132.00000, -338.00000, 2074.00000, 1.44806, 0.06714, -0.03052, -105.09850, -6.87700, 119216, 129.00000, -339.00000, 2077.00000, 1.44806, 0.12817, -0.03052, -104.50050, -4.78400, 129256, 131.00000, -340.00000, 2077.00000, 1.44806, 0.31128, 0.09155, -104.50050, -6.72750, 12.9296, 134.00000, -340.00000, 2072.00000, 1.44806, 0.00610, 0.09155, -104.50050, -6.72750, 12.9346, 129.00000, -342.00000, 2072.00000, 1.44806, 0.06714, 0.09155, -104.50050, -6.72750, 12.9386, 130.00000, -341.00000, 2073.00000, 1.50909, 0.12817, 0.03052, -104.50050, -6.72750, 12.9426, 131.00000, -341.00000, 2073.00000, 1.50909, 0.18921, 0.03052, -103.60350, -6.12950, 11.9466, 131.00000, -340.00000, 2075.00000, 1.38702, 0.06714, 0.09155, -104.35100, -7.17600, 12.9506, 132.00000, -341.00000, 2077.00000, 1.44806, 0.06714, -0.03052, -103.60350, -6.87700, 129546, 135.00000, -341.00000, 2077.00000, 1.50909, 0.18921, 0.09155, -104.35100, -7.17600, 11.9592, 132.00000, -340.00000, 2079.00000, 1.44806, 0.12817, 0.03052, -101.95900, -2.54150, 11.9632, 132.00000, -341.00000, 2074.00000, 1.38702, 0.06714, 0.09155, -101.95900, -2.54150, 11.9672, 135.00000, -339.00000, 2073.00000, 1.38702, 0.12817, 0.09155, -101.95900, -2.54150, 11.9712, 131.00000, -343.00000, 2075.00000, 1.44806, 0.12817, 0.03052, -104.50050, -7.02650, 10.9752, 133.00000, -341.00000, 2075.00000, 1.44806, 0.00610, 0.09155, -103.60350, -7.17600, 11.9792, 131.00000, -340.00000, 2074.00000, 1.38702, 0.06714, 0.03052, -104.35100, -6.12950, 11.9842, 131.00000, -338.00000, 2074.00000, 1.44806, 0.06714, 0.09155, -103.30450, -2.69100, 10.9882, 132.00000, -341.00000, 2074.00000, 1.50909, 0.12817, 0.03052, -103.30450, -2.69100, 10.46500

9096, 130.00000, -342.00000, 2071.00000, 1.50909, 0.12817, 0.03052, -101.06200, -1.64450, 9.79136, 132.00000, -344.00000, 2072.00000, 1.50909, 0.12817, 0.03052, -101.06200, -1.64450, 9.79176, 132.00000, -338.00000, 2074.00000, 1.44806, 0.06714, -0.03052, -105.09850, -6.87700, 119216, 129.00000, -339.00000, 2077.00000, 1.44806, 0.12817, -0.03052, -104.50050, -4.78400, 129256, 131.00000, -340.00000, 2077.00000, 1.44806, 0.31128, 0.09155, -104.50050, -6.72750, 12.9296, 134.00000, -340.00000, 2072.00000, 1.44806, 0.00610, 0.09155, -104.50050, -6.72750, 12.9346, 129.00000, -342.00000, 2072.00000, 1.44806, 0.06714, 0.09155, -104.50050, -6.72750, 12.9386, 130.00000, -341.00000, 2073.00000, 1.50909, 0.12817, 0.03052, -104.50050, -6.72750, 12.9426, 131.00000, -341.00000, 2073.00000, 1.50909, 0.18921, 0.03052, -103.60350, -6.12950, 11.9466, 131.00000, -340.00000, 2075.00000, 1.38702, 0.06714, 0.09155, -104.35100, -7.17600, 12.9506, 132.00000, -341.00000, 2077.00000, 1.44806, 0.06714, -0.03052, -103.60350, -6.87700, 129546, 135.00000, -341.00000, 2077.00000, 1.50909, 0.18921, 0.09155, -104.35100, -7.17600, 11.9592, 132.00000, -340.00000, 2079.00000, 1.44806, 0.12817, 0.03052, -101.95900, -2.54150, 11.9632, 132.00000, -341.00000, 2074.00000, 1.38702, 0.06714, 0.09155, -101.95900, -2.54150, 11.9672, 135.00000, -339.00000, 2073.00000, 1.38702, 0.12817, 0.09155, -101.95900, -2.54150, 11.9712, 131.00000, -343.00000, 2075.00000, 1.44806, 0.12817, 0.03052, -104.50050, -7.02650, 10.9752, 133.00000, -341.00000, 2075.00000, 1.44806, 0.00610, 0.09155, -103.60350, -7.17600, 11.9792, 131.00000, -340.00000, 2074.00000, 1.38702, 0.06714, 0.03052, -104.35100, -6.12950, 11.9842, 131.00000, -338.00000, 2074.00000, 1.44806, 0.06714, 0.09155, -103.30450, -2.69100, 10.9882, 132.00000, -341.00000, 2074.00000, 1.50909, 0.12817, 0.03052, -103.30450, -2.69100, 10.46500

9136, 132.00000, -344.00000, 2072.00000, 1.50909, 0.12817, 0.03052, -101.06200, -1.64450, 9.79176, 132.00000, -338.00000, 2074.00000, 1.44806, 0.06714, -0.03052, -105.09850, -6.87700, 119216, 129.00000, -339.00000, 2077.00000, 1.44806, 0.12817, -0.03052, -104.50050, -4.78400, 129256, 131.00000, -340.00000, 2077.00000, 1.44806, 0.31128, 0.09155, -104.50050, -6.72750, 12.9296, 134.00000, -340.00000, 2072.00000, 1.44806, 0.00610, 0.09155, -104.50050, -6.72750, 12.9346, 129.00000, -342.00000, 2072.00000, 1.44806, 0.06714, 0.09155, -104.50050, -6.72750, 12.9386, 130.00000, -341.00000, 2073.00000, 1.50909, 0.12817, 0.03052, -104.50050, -6.72750, 12.9426, 131.00000, -341.00000, 2073.00000, 1.50909, 0.18921, 0.03052, -103.60350, -6.12950, 11.9466, 131.00000, -340.00000, 2075.00000, 1.38702, 0.06714, 0.09155, -104.35100, -7.17600, 12.9506, 132.00000, -341.00000, 2077.00000, 1.44806, 0.06714, -0.03052, -103.60350, -6.87700, 129546, 135.00000, -341.00000, 2077.00000, 1.50909, 0.18921, 0.09155, -104.35100, -7.17600, 11.9592, 132.00000, -340.00000, 2079.00000, 1.44806, 0.12817, 0.03052, -101.95900, -2.54150, 11.9632, 132.00000, -341.00000, 2074.00000, 1.38702, 0.06714, 0.09155, -101.95900, -2.54150, 11.9672, 135.00000, -339.00000, 2073.00000, 1.38702, 0.12817, 0.09155, -101.95900, -2.54150, 11.9712, 131.00000, -343.00000, 2075.00000, 1.44806, 0.12817, 0.03052, -104.50050, -7.02650, 10.9752, 133.00000, -341.00000, 2075.00000, 1.44806, 0.00610, 0.09155, -103.60350, -7.17600, 11.9792, 131.00000, -340.00000, 2074.00000, 1.38702, 0.06714, 0.03052, -104.35100, -6.12950, 11.9842, 131.00000, -338.00000, 2074.00000, 1.44806, 0.06714, 0.09155, -103.30450, -2.69100, 10.9882, 132.00000, -341.00000, 2074.00000, 1.50909, 0.12817, 0.03052, -103.30450, -2.69100, 10.46500

9176, 132.00000, -338.00000, 2074.00000, 1.44806, 0.06714, -0.03052, -105.09850, -6.87700, 119216, 129.00000, -339.00000, 2077.00000, 1.44806, 0.12817, -0.03052, -104.50050, -4.78400, 129256, 131.00000, -340.00000, 2077.00000, 1.44806, 0.31128, 0.09155, -104.50050, -6.72750, 12.9296, 134.00000, -340.00000, 2072.00000, 1.44806, 0.00610, 0.09155, -104.50050, -6.72750, 12.9346, 129.00000, -342.00000, 2072.00000, 1.44806, 0.06714, 0.09155, -104.50050, -6.72750, 12.9386, 130.00000, -341.00000, 2073.00000, 1.50909, 0.12817, 0.03052, -104.50050, -6.72750, 12.9426, 131.00000, -341.00000, 2073.00000, 1.50909, 0.18921, 0.03052, -103.60350, -6.12950, 11.9466, 131.00000, -340.00000, 2075.00000, 1.38702, 0.06714, 0.09155, -104.35100, -7.17600, 12.9506, 132.00000, -341.00000, 2077.00000, 1.44806, 0.06714, -0.03052, -103.60350, -6.87700, 129546, 135.00000, -341.00000, 2077.00000, 1.50909, 0.18921, 0.09155, -104.35100, -7.17600, 11.9592, 132.00000, -340.00000, 2079.00000, 1.44806, 0.12817, 0.03052, -101.95900, -2.54150, 11.9632, 132.00000, -341.00000, 2074.00000, 1.38702, 0.06714, 0.09155, -101.95900, -2.54150, 11.9672, 135.00000, -339.00000, 2073.00000, 1.38702, 0.12817, 0.09155, -101.95900, -2.54150, 11.9712, 131.00000, -343.00000, 2075.00000, 1.44806, 0.12817, 0.03052, -104.50050, -7.02650, 10.9752, 133.00000, -341.00000, 2075.00000, 1.44806, 0.00610, 0.09155, -103.60350, -7.17600, 11.9792, 131.00000, -340.00000, 2074.00000, 1.38702, 0.06714, 0.03052, -104.35100, -6.12950, 11.9842, 131.00000, -338.00000, 2074.00000, 1.44806, 0.06714, 0.09155, -103.30450, -2.69100, 10.9882, 132.00000, -341.00000, 2074.00000, 1.50909, 0.12817, 0.03052, -103.30450, -2.69100, 10.46500

9216, 129.00000, -339.00000, 2077.00000, 1.44806, 0.12817, -0.03052, -104.50050, -4.78400, 129256, 131.00000, -340.00000, 2077.00000, 1.44806, 0.31128, 0.09155, -104.50050, -6.72750, 12.9296, 134.00000, -340.00000, 2072.00000, 1.44806, 0.00610, 0.09155, -104.50050, -6.72750, 12.9346, 129.00000, -342.00000, 2072.00000, 1.44806, 0.06714, 0.09155, -104.50050, -6.72750, 12.9386, 130.00000, -341.00000, 2073.00000, 1.50909, 0.12817, 0.03052, -104.50050, -6.72750, 12.9426, 131.00000, -341.00000, 2073.00000, 1.50909, 0.18921, 0.03052, -103.60350, -6.12950, 11.9466, 131.00000, -340.00000, 2075.00000, 1.38702, 0.06714, 0.09155, -104.35100, -7.17600, 12.9506, 132.00000, -341.00000, 2077.00000, 1.44806, 0.06714, -0.03052, -103.60350, -6.87700, 129546, 135.00000, -341.00000, 2077.00000, 1.50909, 0.18921, 0.09155, -104.35100, -7.17600, 11.9592, 132.00000, -340.00000, 2079.00000, 1.44806, 0.12817, 0.03052, -101.95900, -2.54150, 11.9632, 132.00000, -341.00000, 2074.00000, 1.38702, 0.06714, 0.09155, -101.95900, -2.54150, 11.9672, 135.00000, -339.00000, 2073.00000, 1.38702, 0.12817, 0.09155, -101.95900, -2.54150, 11.9712, 131.00000, -343.00000, 2075.00000, 1.44806, 0.12817, 0.03052, -104.50050, -7.02650, 10.9752, 133.00000, -341.00000, 2075.00000, 1.44806, 0.00610, 0.09155, -103.60350, -7.17600, 11.9792, 131.00000, -340.00000, 2074.00000, 1.38702, 0.06714, 0.03052, -104.35100, -6.12950, 11.9842, 131.00000, -338.00000, 2074.00000, 1.44806, 0.06714, 0.09155, -103.30450, -2.69100, 10.9882, 132.00000, -341.00000, 2074.00000, 1.50909, 0.12817, 0.03052, -103.30450, -2.69100, 10.46500

9256, 131.00000, -340.00000, 2077.00000, 1.44806, 0.31128, 0.09155, -104.50050, -6.72750, 12.9296, 134.00000, -340.00000, 2072.00000, 1.44806, 0.00610, 0.09155, -104.50050, -6.72750, 12.9346, 129.00000, -342.00000, 2072.00000, 1.44806, 0.06714, 0.09155, -104.50050, -6.72750, 12.9386, 130.00000, -341.00000, 2073.00000, 1.50909, 0.12817, 0.03052, -104.50050, -6.72750, 12.9426, 131.00000, -341.00000, 2073.00000, 1.50909, 0.18921, 0.03052, -103.60350, -6.12950, 11.9466, 131.00000, -340.00000, 2075.00000, 1.38702, 0.06714, 0.09155, -104.35100, -7.17600, 12.9506, 132.00000, -341.00000, 2077.00000, 1.44806, 0.06714, -0.03052, -103.60350, -6.87700, 129546, 135.00000, -341.00000, 2077.00000, 1.50909, 0.18921, 0.09155, -104.35100, -7.17600, 11.9592, 132.00000, -340.00000, 2079.00000, 1.44806, 0.12817, 0.03052, -101.95900, -2.54150, 11.9632, 132.00000, -341.00000, 2074.00000, 1.38702, 0.06714, 0.09155, -101.95900, -2.54150, 11.9672, 135.00000, -339.00000, 2073.00000, 1.38702, 0.12817, 0.09155, -101.95900, -2.54150, 11.9712, 131.00000, -343.00000, 2075.00000, 1.44806, 0.12817, 0.03052, -104.50050, -7.02650, 10.9752, 133.00000, -341.00000, 2075.00000, 1.44806, 0.00610, 0.09155, -103.60350, -7.17600, 11.9792, 131.00000, -340.00000, 2074.00000, 1.38702, 0.06714, 0.03052, -104.35100, -6.12950, 11.9842, 131.00000, -338.00000, 2074.00000, 1.44806, 0.06714, 0.09155, -103.30450, -2.69100, 10.9882, 132.00000, -341.00000, 2074.00000, 1.50909, 0.12817, 0.03052, -103.30450, -2.69100, 10.46500

9296, 134.00000, -340.00000, 2072.00000, 1.44806, 0.00610, 0.09155, -104.50050, -6.72750, 12.9346, 129.00000, -342.00000, 2072.00000, 1.44806, 0.06714, 0.09155, -104.50050, -6.72750, 12.9386, 130.00000, -341.00000, 2073.00000, 1.50909, 0.12817, 0.03052, -104.50050, -6.72750, 12.9426, 131.00000, -341.00000, 2073.00000, 1.50909, 0.18921, 0.03052, -103.60350, -6.12950, 11.9466, 131.00000, -340.00000, 2075.00000, 1.38702, 0.06714, 0.09155, -104.35100, -7.17600, 12.9506, 132.00000, -341.00000, 2077.00000, 1.44806, 0.06714, -0.03052, -103.60350, -6.87700, 129546, 135.00000, -341.00000, 2077.00000, 1.50909, 0.18921, 0.09155, -104.35100, -7.17600, 11.9592, 132.00000, -340.00000, 2079.00000, 1.44806, 0.12817, 0.03052, -101.95900, -2.54150, 11.9632, 132.00000, -341.00000, 2074.00000, 1.38702, 0.06714, 0.09155, -101.95900, -2.54150, 11.9672, 135.00000, -339.00000, 2073.00000, 1.38702, 0.12817, 0.09155, -101.95900, -2.54150, 11.9712, 131.00000, -343.00000, 2075.00000, 1.44806, 0.12817, 0.03052, -104.50050, -7.02650, 10.9752, 133.00000, -341.00000, 2075.00000, 1.44806, 0.00610, 0.09155, -103.60350, -7.17600, 11.9792, 131.00000, -340.00000, 2074.00000, 1.38702, 0.06714, 0.03052, -104.35100, -6.12950, 11.9842, 131.00000, -338.00000, 2074.00000, 1.44806, 0.06714, 0.09155, -103.30450, -2.69100, 10.9882, 132.00000, -341.00000, 2074.00000, 1.50909, 0.12817, 0.03052, -103.30450, -2.69100, 10.46500

9346, 129.00000, -342.00000, 2072.00000, 1.44806, 0.06714, 0.09155, -104.50050, -6.72750, 12.9386, 130.00000, -341.00000, 2073.00000, 1.50909, 0.12817, 0.03052, -104.50050, -6.72750, 12.9426, 131.00000, -341.00000, 2073.00000, 1.50909, 0.18921, 0.03052, -103.60350, -6.12950, 11.9466, 131.00000, -340.00000, 2075.00000, 1.38702, 0.06714, 0.09155, -104.35100, -7.17600, 12.9506, 132.00000, -341.00000, 2077.00000, 1.44806, 0.06714, -0.03052, -103.60350, -6.87700, 129546, 135.00000, -341.00000, 2077.00000, 1.50909, 0.18921, 0.09155, -104.35100, -7.17600, 11.9592, 132.00000, -340.00000, 2079.00000, 1.44806, 0.12817, 0.03052, -101.95900, -2.54150, 11.9632, 132.00000, -341.00000, 2074.00000, 1.38702, 0.06714, 0.09155, -101.95900, -2.54150, 11.9672, 135.00000, -339.00000, 2073.00000, 1.38702, 0.12817, 0.09155, -101.95900, -2.54150, 11.9712, 131.00000, -343.00000, 2075.00000, 1.44806, 0.12817, 0.03052, -104.50050, -7.02650, 10.9752, 133.00000, -341.00000, 2075.00000, 1.44806, 0.00610, 0.09155, -103.60350, -7.17600, 11.9792, 131.00000, -340.00000, 2074.00000, 1.38702, 0.06714, 0.03052, -104.35100, -6.12950, 11.9842, 131.00000, -338.00000, 2074.00000, 1.44806, 0.06714, 0.09155, -103.30450, -2.69100, 10.9882, 132.00000, -341.00000, 2074.00000, 1.50909, 0.12817, 0.03052, -103.30450, -2.69100, 10.46500

9386, 130.00000, -341.00000, 2073.00000, 1.50909, 0.12817, 0.03052, -104.50050, -6.72750, 12.9426, 131.00000, -341.00000, 2073.00000, 1.50909, 0.18921, 0.03052, -103.60350, -6.12950, 11.9466, 131.00000, -340.00000, 2075.00000, 1.38702, 0.06714, 0.09155, -104.35100, -7.17600, 12.9506, 132.00000, -341.00000, 2077.00000, 1.44806, 0.06714, -0.03052, -103.60350, -6.87700, 129546, 135.00000, -341.00000, 2077.00000, 1.50909, 0.18921, 0.09155, -104.35100, -7.17600, 11.9592, 132.00000, -340.00000, 2079.00000, 1.44806, 0.12817, 0.03052, -101.95900, -2.54150, 11.9632, 132.00000, -341.00000, 2074.00000, 1.38702, 0.06714, 0.09155, -101.95900, -2.54150, 11.9672, 135.00000, -339.00000, 2073.00000, 1.38702, 0.12817, 0.09155, -101.95900, -2.54150, 11.9712, 131.00000, -343.00000, 2075.00000, 1.44806, 0.12817, 0.03052, -104.50050, -7.02650, 10.9752, 133.00000, -341.00000, 2075.00000, 1.44806, 0.00610, 0.09155, -103.60350, -7.17600, 11.9792, 131.00000, -340.00000, 2074.00000, 1.38702, 0.06714, 0.03052, -104.35100, -6.12950, 11.9842, 131.00000, -338.00000, 2074.00000, 1.44806, 0.06714, 0.09155, -103.30450, -2.69100, 10.9882, 132.00000, -341.00000, 2074.00000, 1.50909, 0.12817, 0.03052, -103.30450, -2.69100, 10.46500

9426, 131.00000, -341.00000, 2073.00000, 1.50909, 0.18921, 0.03052, -103.60350, -6.12950, 11.9466, 131.00000, -340.00000, 2075.00000, 1.38702, 0.06714, 0.09155, -104.35100, -7.17600, 12.9506, 132.00000, -341.00000, 2077.00000, 1.44806, 0.06714, -0.03052, -103.60350, -6.87700, 129546, 135.00000, -341.00000, 2077.00000, 1.50909, 0.18921, 0.09155, -104.35100, -7.17600, 11.9592, 132.00000, -340.00000, 2079.00000, 1.44806, 0.12817, 0.03052, -101.95900, -2.54150, 11.9632, 132.00000, -341.00000, 2074.00000, 1.38702, 0.06714, 0.09155, -101.95900, -2.54150, 11.9672, 135.00000, -339.00000, 2073.00000, 1.38702, 0.12817, 0.09155, -101.95900, -2.54150, 11.9712, 131.00000, -343.00000, 2075.00000, 1.44806, 0.12817, 0.03052, -104.50050, -7.02650, 10.9752, 133.00000, -341.00000, 2075.00000, 1.44806, 0.00610, 0.09155, -103.60350, -7.17600, 11.9792, 131.00000, -340.00000, 2074.00000, 1.38702, 0.06714, 0.03052, -104.35100, -6.12950, 11.9842, 131.00000, -338.00000, 2074.00000, 1.44806, 0.06714, 0.09155, -103.30450, -2.69100, 10.9882, 132.00000, -341.00000, 2074.00000, 1.50909, 0.12817, 0.03052, -103.30450, -2.69100, 10.46500

9466, 131.00000, -340.00000, 2075.00000, 1.38702, 0.06714, 0.09155, -104.35100, -7.17600, 12.9506, 132.00000, -341.00000, 2077.00000, 1.44806, 0.06714, -0.03052, -103.60350, -6.87700, 129546, 135.00000, -341.00000, 2077.00000, 1.50909, 0.18921, 0.09155, -104.35100, -7.17600, 11.9592, 132.00000, -340.00000, 2079.00000, 1.44806, 0.12817, 0.03052, -101.95900, -2.54150, 11.9632, 132.00000, -341.00000, 2074.00000, 1.38702, 0.06714, 0.09155, -101.95900, -2.54150, 11.9672, 135.00000, -339.00000, 2073.00000, 1.38702, 0.12817, 0.09155, -101.95900, -2.54150, 11.9712, 131.00000, -343.00000, 2075.00000, 1.44806, 0.12817, 0.03052, -104.50050, -7.02650, 10.9752, 133.00000, -341.00000, 2075.00000, 1.44806, 0.00610, 0.09155, -103.60350, -7.17600, 11.9792, 131.00000, -340.00000, 2074.00000, 1.38702, 0.06714, 0.03052, -104.35100, -6.12950, 11.9842, 131.00000, -338.00000, 2074.00000, 1.44806, 0.06714, 0.09155, -103.30450, -2.69100, 10.9882, 132.00000, -341.00000, 2074.00000, 1.50909, 0.12817, 0.03052, -103.30450, -2.69100, 10.46500

9506, 132.00000, -341.00000, 2077.00000, 1.44806, 0.06714, -0.03052, -103.60350, -6.87700, 129546, 135.00000, -341.00000, 2077.00000, 1.50909, 0.18921, 0.09155, -104.35100, -7.17600, 11.9592, 132.00000, -340.00000, 2079.00000, 1.44806, 0.12817, 0.03052, -101.95900, -2.54150, 11.9632, 132.00000, -341.00000, 2074.00000, 1.38702, 0.06714, 0.09155, -101.95900, -2.54150, 11.9672, 135.00000, -339.00000, 2073.00000, 1.38702, 0.12817, 0.09155, -101.95900, -2.54150, 11.9712, 131.00000, -343.00000, 2075.00000, 1.44806, 0.12817, 0.03052, -104.50050, -7.02650, 10.9752, 133.00000, -341.00000, 2075.00000, 1.44806, 0.00610, 0.09155, -103.60350, -7.17600, 11.9792, 131.00000, -340.00000, 2074.00000, 1.38702, 0.06714, 0.03052, -104.35100, -6.12950, 11.9842, 131.00000, -338.00000, 2074.00000, 1.44806, 0.06714, 0.09155, -103.30450, -2.69100, 10.9882, 132.00000, -341.00000, 2074.00000, 1.50909, 0.12817, 0.03052, -103.30450, -2.69100, 10.46500

9546, 135.00000, -341.00000, 2077.00000, 1.50909, 0.18921, 0.09155, -104.35100, -7.17600, 11.9592, 132.00000, -340.00000, 2079.00000, 1.44806, 0.12817, 0.03052, -101.95900, -2.54150, 11.9632, 132.00000, -341.00000, 2074.00000, 1.38702, 0.06714, 0.09155, -101.95900, -2.54150, 11.9672, 135.00000, -339.00000, 2073.00000, 1.38702, 0.12817, 0.09155, -101.95900, -2.54150, 11.9712, 131.00000, -343.00000, 2075.00000, 1.44806, 0.12817, 0.03052, -104.50050, -7.02650, 10.9752, 133.00000, -341.00000, 2075.00000, 1.44806, 0.00610, 0.09155, -103.60350, -7.17600, 11.9792, 131.00000, -340.00000, 2074.00000, 1.38702, 0.06714, 0.03052, -104.35100, -6.12950, 11.9842, 131.00000, -338.00000, 2074.00000, 1.44806, 0.06714, 0.09155, -103.30450, -2.69100, 10.9882, 132.00000, -341.00000, 2074.00000, 1.50909, 0.12817, 0.03052, -103.30450, -2.69100, 10.46500

9592, 132.00000, -340.00000, 2079.00000, 1.44806, 0.12817, 0.03052, -101.95900, -2.54150, 11.9632, 132.00000, -341.00000, 2074.00000, 1.38702, 0.06714, 0.09155, -101.95900, -2.54150, 11.9672, 135.00000, -339.00000, 2073.00000, 1.38702, 0.12817, 0.09155, -101.95900, -2.54150, 11.9712, 131.00000, -343.00000, 2075.00000, 1.44806, 0.12817, 0.03052, -104.50050, -7.02650, 10.9752, 133.00000, -341.00000, 2075.00000, 1.44806, 0.00610, 0.09155, -103.60350, -7.17600, 11.9792, 131.00000, -340.00000, 2074.00000, 1.38702, 0.06714, 0.03052, -104.35100, -6.12950, 11.9842, 131.00000, -338.00000, 2074.00000, 1.44806, 0.06714, 0.09155, -103.30450, -2.69100, 10.9882, 132.00000, -341.00000, 2074.00000, 1.50909, 0.12817, 0.03052, -103.30450, -2.69100, 10.46500

9632, 132.00000, -341.00000, 2074.00000, 1.38702, 0.06714, 0.09155, -101.95900, -2.54150, 11.9672, 135.00000, -339.00000, 2073.00000, 1.38702, 0.12817, 0.09155, -101.95900, -2.54150, 11.9712, 131.00000, -343.00000, 2075.00000, 1.44806, 0.12817, 0.03052, -104.50050, -7.02650, 10.9752, 133.00000, -341.00000, 2075.00000, 1.44806, 0.00610, 0.09155, -103.60350, -7.17600, 11.9792, 131.00000, -340.00000, 2074.00000, 1.38702, 0.06714, 0.03052, -104.35100, -6.12950, 11.9842, 131.00000, -338.00000, 2074.00000, 1.44806, 0.06714, 0.09155, -103.30450, -2.69100, 10.9882, 132.00000, -341.00000, 2074.00000, 1.50909, 0.12817, 0.03052, -103.30450, -2.69100, 10.46500

9672, 135.00000, -339.00000, 2073.00000, 1.38702, 0.12817, 0.09155, -101.95900, -2.54150, 11.9712, 131.00000, -343.00000, 2075.00000, 1.44806, 0.12817, 0.03052, -104.50050, -7.02650, 10.9752, 133.00000, -341.00000, 2075.00000, 1.44806, 0.00610, 0.09155, -103.60350, -7.17600, 11.9792, 131.00000, -340.00000, 2074.00000, 1.38702, 0.06714, 0.03052, -104.35100, -6.12950, 11.9842, 131.00000, -338.00000, 2074.00000, 1.44806, 0.06714, 0.09155, -103.30450, -2.69100, 10.9882, 132.00000, -341.00000, 2074.00000, 1.50909, 0.12817, 0.03052, -103.30450, -2.69100, 10.46500

9712, 131.00000, -343.00000, 2075.00000, 1.44806, 0.12817, 0.03052, -104.50050, -7.02650, 10.9752, 133.00000, -341.00000, 2075.00000, 1.44806, 0.00610, 0.09155, -103.60350, -7.17600, 11.9792, 131.00000, -340.00000, 2074.00000, 1.38702, 0.06714, 0.03052, -104.35100, -6.12950, 11.9842, 131.00000, -338.00000, 2074.00000, 1.44806, 0.06714, 0.09155, -103.30450, -2.69100, 10.9882, 132.00000, -341.00000, 2074.00000, 1.50909, 0.12817, 0.03052, -103.30450, -2.69100, 10.46500

9752, 133.00000, -341.00000, 2075.00000, 1.44806, 0.00610, 0.09155, -103.60350, -7.17600, 11.9792, 131.00000, -340.00000, 2074.00000, 1.38702, 0.06714, 0.03052, -104.35100, -6.12950, 11.9842, 131.00000, -338.00000, 2074.00000, 1.44806, 0.06714, 0.09155, -103.30450, -2.69100, 10.9882, 132.00000, -341.00000, 2074.00000, 1.50909, 0.12817, 0.03052, -103.30450, -2.69100, 10.46500

9792, 131.00000, -340.00000, 2074.00000, 1.38702, 0.06714, 0.03052, -104.35100, -6.12950, 11.9842, 131.00000, -338.00000, 2074.00000, 1.44806, 0.06714, 0.09155, -103.30450, -2.69100, 10.9882, 132.00000, -341.00000, 2074.00000, 1.50909, 0.12817, 0.03052, -103.30450, -2.69100, 10.46500

9842, 131.00000, -338.00000, 2074.00000, 1.44806, 0.06714, 0.09155, -103.30450, -2.69100, 10.9882, 132.00000, -341.00000, 2074.00000, 1.50909, 0.12817, 0.03052, -103.30450, -2.69100, 10.46500

9882, 132.00000, -341.00000, 2074.00000, 1.50909, 0.12817, 0.03052, -103.30450, -2.69100, 10.46500

9986, 133.00000, -340.00000, 2074.00000, 1.38702, 0.06714, 0.03052, -103.60350, -5.38200, 12.10026, 131.00000, -341.00000, 2071.00000, 1.44806, 0.06714, 0.09155, -103.60350, -5.38200, 1210066, 133.00000, -344.00000, 2073.00000, 1.44806, 0.06714, -0.03052, -104.20150, -7.02650, 110106, 134.00000, -340.00000, 2072.00000, 1.38702, 0.12817, 0.03052, -103.90250, -6.72750, 1310146, 134.00000, -340.00000, 2074.00000, 1.50909, 0.18921, -0.03052, -104.50050, -7.77400, 110186, 134.00000, -342.00000, 2072.00000, 1.50909, 0.12817, 0.03052, -104.35100, -6.87700, 1010226, 133.00000, -341.00000, 2073.00000, 1.38702, 0.00610, 0.09155, -104.35100, -6.87700, 1010266, 131.00000, -342.00000, 2071.00000, 1.50909, 0.12817, 0.03052, -104.35100, -6.87700, 1010306, 130.00000, -343.00000, 2073.00000, 1.44806, 0.06714, 0.09155, -104.35100, -6.87700, 1010346, 132.00000, -340.00000, 2073.00000, 1.44806, 0.06714, 0.09155, -103.45399, -7.02650, 1110386, 133.00000, -343.00000, 2077.00000, 1.50909, 0.12817, 0.09155, -104.94900, -7.77400, 1110426, 131.00000, -341.00000, 2072.00000, 1.50909, 0.25024, 0.03052, -104.94900, -7.77400, 1110466, 136.00000, -342.00000, 2073.00000, 1.50909, 0.12817, 0.03052, -103.60350, -6.42850, 1210515, 131.00000, -343.00000, 2071.00000, 1.44806, 0.06714, 0.03052, -103.30450, -4.18600, 1210555, 134.00000, -340.00000, 2075.00000, 1.44806, 0.12817, -0.03052, -103.00550, -4.93350, 110595, 135.00000, -338.00000, 2075.00000, 1.44806, 0.18921, -0.03052, -103.00550, -4.93350, 110635, 132.00000, -340.00000, 2077.00000, 1.38702, 0.00610, 0.03052, -104.94900, -6.27900, 1210675, 130.00000, -336.00000, 2074.00000, 1.44806, 0.18921, 0.09155, -105.09850, -6.12950, 1110715, 130.00000, -340.00000, 2073.00000, 1.50909, 0.12817, 0.03052, -105.09850, -6.12950, 1110764, 133.00000, -338.00000, 2074.00000, 1.50909, 0.18921, -0.03052, -105.39750, -4.93350, 110804, 132.00000, -341.00000, 2075.00000, 1.44806, -0.05493, 0.03052, -103.60350, -4.18600, 110844, 132.00000, -339.00000, 2075.00000, 1.44806, 0.18921, 0.03052, -105.84600, -4.93350, 1210884, 132.00000, -343.00000, 2076.00000, 1.44806, 0.12817, 0.03052, -105.84600, -4.93350, 1210924, 130.00000, -338.00000, 2073.00000, 1.44806, 0.00610, -0.03052, -105.84600, -4.93350, 110964, 130.00000, -340.00000, 2072.00000, 1.50909, 0.25024, 0.03052, -105.84600, -4.93350, 12.85700

10026, 131.00000, -341.00000, 2071.00000, 1.44806, 0.06714, 0.09155, -103.60350, -5.38200, 1210066, 133.00000, -344.00000, 2073.00000, 1.44806, 0.06714, -0.03052, -104.20150, -7.02650, 110106, 134.00000, -340.00000, 2072.00000, 1.38702, 0.12817, 0.03052, -103.90250, -6.72750, 1310146, 134.00000, -340.00000, 2074.00000, 1.50909, 0.18921, -0.03052, -104.50050, -7.77400, 110186, 134.00000, -342.00000, 2072.00000, 1.50909, 0.12817, 0.03052, -104.35100, -6.87700, 1010226, 133.00000, -341.00000, 2073.00000, 1.38702, 0.00610, 0.09155, -104.35100, -6.87700, 1010266, 131.00000, -342.00000, 2071.00000, 1.50909, 0.12817, 0.03052, -104.35100, -6.87700, 1010306, 130.00000, -343.00000, 2073.00000, 1.44806, 0.06714, 0.09155, -104.35100, -6.87700, 1010346, 132.00000, -340.00000, 2073.00000, 1.44806, 0.06714, 0.09155, -103.45399, -7.02650, 1110386, 133.00000, -343.00000, 2077.00000, 1.50909, 0.12817, 0.09155, -104.94900, -7.77400, 1110426, 131.00000, -341.00000, 2072.00000, 1.50909, 0.25024, 0.03052, -104.94900, -7.77400, 1110466, 136.00000, -342.00000, 2073.00000, 1.50909, 0.12817, 0.03052, -103.60350, -6.42850, 1210515, 131.00000, -343.00000, 2071.00000, 1.44806, 0.06714, 0.03052, -103.30450, -4.18600, 1210555, 134.00000, -340.00000, 2075.00000, 1.44806, 0.12817, -0.03052, -103.00550, -4.93350, 110595, 135.00000, -338.00000, 2075.00000, 1.44806, 0.18921, -0.03052, -103.00550, -4.93350, 110635, 132.00000, -340.00000, 2077.00000, 1.38702, 0.00610, 0.03052, -104.94900, -6.27900, 1210675, 130.00000, -336.00000, 2074.00000, 1.44806, 0.18921, 0.09155, -105.09850, -6.12950, 1110715, 130.00000, -340.00000, 2073.00000, 1.50909, 0.12817, 0.03052, -105.09850, -6.12950, 1110764, 133.00000, -338.00000, 2074.00000, 1.50909, 0.18921, -0.03052, -105.39750, -4.93350, 110804, 132.00000, -341.00000, 2075.00000, 1.44806, -0.05493, 0.03052, -103.60350, -4.18600, 110844, 132.00000, -339.00000, 2075.00000, 1.44806, 0.18921, 0.03052, -105.84600, -4.93350, 1210884, 132.00000, -343.00000, 2076.00000, 1.44806, 0.12817, 0.03052, -105.84600, -4.93350, 1210924, 130.00000, -338.00000, 2073.00000, 1.44806, 0.00610, -0.03052, -105.84600, -4.93350, 110964, 130.00000, -340.00000, 2072.00000, 1.50909, 0.25024, 0.03052, -105.84600, -4.93350, 12.85700

10066, 133.00000, -344.00000, 2073.00000, 1.44806, 0.06714, -0.03052, -104.20150, -7.02650, 110106, 134.00000, -340.00000, 2072.00000, 1.38702, 0.12817, 0.03052, -103.90250, -6.72750, 1310146, 134.00000, -340.00000, 2074.00000, 1.50909, 0.18921, -0.03052, -104.50050, -7.77400, 110186, 134.00000, -342.00000, 2072.00000, 1.50909, 0.12817, 0.03052, -104.35100, -6.87700, 1010226, 133.00000, -341.00000, 2073.00000, 1.38702, 0.00610, 0.09155, -104.35100, -6.87700, 1010266, 131.00000, -342.00000, 2071.00000, 1.50909, 0.12817, 0.03052, -104.35100, -6.87700, 1010306, 130.00000, -343.00000, 2073.00000, 1.44806, 0.06714, 0.09155, -104.35100, -6.87700, 1010346, 132.00000, -340.00000, 2073.00000, 1.44806, 0.06714, 0.09155, -103.45399, -7.02650, 1110386, 133.00000, -343.00000, 2077.00000, 1.50909, 0.12817, 0.09155, -104.94900, -7.77400, 1110426, 131.00000, -341.00000, 2072.00000, 1.50909, 0.25024, 0.03052, -104.94900, -7.77400, 1110466, 136.00000, -342.00000, 2073.00000, 1.50909, 0.12817, 0.03052, -103.60350, -6.42850, 1210515, 131.00000, -343.00000, 2071.00000, 1.44806, 0.06714, 0.03052, -103.30450, -4.18600, 1210555, 134.00000, -340.00000, 2075.00000, 1.44806, 0.12817, -0.03052, -103.00550, -4.93350, 110595, 135.00000, -338.00000, 2075.00000, 1.44806, 0.18921, -0.03052, -103.00550, -4.93350, 110635, 132.00000, -340.00000, 2077.00000, 1.38702, 0.00610, 0.03052, -104.94900, -6.27900, 1210675, 130.00000, -336.00000, 2074.00000, 1.44806, 0.18921, 0.09155, -105.09850, -6.12950, 1110715, 130.00000, -340.00000, 2073.00000, 1.50909, 0.12817, 0.03052, -105.09850, -6.12950, 1110764, 133.00000, -338.00000, 2074.00000, 1.50909, 0.18921, -0.03052, -105.39750, -4.93350, 110804, 132.00000, -341.00000, 2075.00000, 1.44806, -0.05493, 0.03052, -103.60350, -4.18600, 110844, 132.00000, -339.00000, 2075.00000, 1.44806, 0.18921, 0.03052, -105.84600, -4.93350, 1210884, 132.00000, -343.00000, 2076.00000, 1.44806, 0.12817, 0.03052, -105.84600, -4.93350, 1210924, 130.00000, -338.00000, 2073.00000, 1.44806, 0.00610, -0.03052, -105.84600, -4.93350, 110964, 130.00000, -340.00000, 2072.00000, 1.50909, 0.25024, 0.03052, -105.84600, -4.93350, 12.85700

10106, 134.00000, -340.00000, 2072.00000, 1.38702, 0.12817, 0.03052, -103.90250, -6.72750, 1310146, 134.00000, -340.00000, 2074.00000, 1.50909, 0.18921, -0.03052, -104.50050, -7.77400, 110186, 134.00000, -342.00000, 2072.00000, 1.50909, 0.12817, 0.03052, -104.35100, -6.87700, 1010226, 133.00000, -341.00000, 2073.00000, 1.38702, 0.00610, 0.09155, -104.35100, -6.87700, 1010266, 131.00000, -342.00000, 2071.00000, 1.50909, 0.12817, 0.03052, -104.35100, -6.87700, 1010306, 130.00000, -343.00000, 2073.00000, 1.44806, 0.06714, 0.09155, -104.35100, -6.87700, 1010346, 132.00000, -340.00000, 2073.00000, 1.44806, 0.06714, 0.09155, -103.45399, -7.02650, 1110386, 133.00000, -343.00000, 2077.00000, 1.50909, 0.12817, 0.09155, -104.94900, -7.77400, 1110426, 131.00000, -341.00000, 2072.00000, 1.50909, 0.25024, 0.03052, -104.94900, -7.77400, 1110466, 136.00000, -342.00000, 2073.00000, 1.50909, 0.12817, 0.03052, -103.60350, -6.42850, 1210515, 131.00000, -343.00000, 2071.00000, 1.44806, 0.06714, 0.03052, -103.30450, -4.18600, 1210555, 134.00000, -340.00000, 2075.00000, 1.44806, 0.12817, -0.03052, -103.00550, -4.93350, 110595, 135.00000, -338.00000, 2075.00000, 1.44806, 0.18921, -0.03052, -103.00550, -4.93350, 110635, 132.00000, -340.00000, 2077.00000, 1.38702, 0.00610, 0.03052, -104.94900, -6.27900, 1210675, 130.00000, -336.00000, 2074.00000, 1.44806, 0.18921, 0.09155, -105.09850, -6.12950, 1110715, 130.00000, -340.00000, 2073.00000, 1.50909, 0.12817, 0.03052, -105.09850, -6.12950, 1110764, 133.00000, -338.00000, 2074.00000, 1.50909, 0.18921, -0.03052, -105.39750, -4.93350, 110804, 132.00000, -341.00000, 2075.00000, 1.44806, -0.05493, 0.03052, -103.60350, -4.18600, 110844, 132.00000, -339.00000, 2075.00000, 1.44806, 0.18921, 0.03052, -105.84600, -4.93350, 1210884, 132.00000, -343.00000, 2076.00000, 1.44806, 0.12817, 0.03052, -105.84600, -4.93350, 1210924, 130.00000, -338.00000, 2073.00000, 1.44806, 0.00610, -0.03052, -105.84600, -4.93350, 110964, 130.00000, -340.00000, 2072.00000, 1.50909, 0.25024, 0.03052, -105.84600, -4.93350, 12.85700

10146, 134.00000, -340.00000, 2074.00000, 1.50909, 0.18921, -0.03052, -104.50050, -7.77400, 110186, 134.00000, -342.00000, 2072.00000, 1.50909, 0.12817, 0.03052, -104.35100, -6.87700, 1010226, 133.00000, -341.00000, 2073.00000, 1.38702, 0.00610, 0.09155, -104.35100, -6.87700, 1010266, 131.00000, -342.00000, 2071.00000, 1.50909, 0.12817, 0.03052, -104.35100, -6.87700, 1010306, 130.00000, -343.00000, 2073.00000, 1.44806, 0.06714, 0.09155, -104.35100, -6.87700, 1010346, 132.00000, -340.00000, 2073.00000, 1.44806, 0.06714, 0.09155, -103.45399, -7.02650, 1110386, 133.00000, -343.00000, 2077.00000, 1.50909, 0.12817, 0.09155, -104.94900, -7.77400, 1110426, 131.00000, -341.00000, 2072.00000, 1.50909, 0.25024, 0.03052, -104.94900, -7.77400, 1110466, 136.00000, -342.00000, 2073.00000, 1.50909, 0.12817, 0.03052, -103.60350, -6.42850, 1210515, 131.00000, -343.00000, 2071.00000, 1.44806, 0.06714, 0.03052, -103.30450, -4.18600, 1210555, 134.00000, -340.00000, 2075.00000, 1.44806, 0.12817, -0.03052, -103.00550, -4.93350, 110595, 135.00000, -338.00000, 2075.00000, 1.44806, 0.18921, -0.03052, -103.00550, -4.93350, 110635, 132.00000, -340.00000, 2077.00000, 1.38702, 0.00610, 0.03052, -104.94900, -6.27900, 1210675, 130.00000, -336.00000, 2074.00000, 1.44806, 0.18921, 0.09155, -105.09850, -6.12950, 1110715, 130.00000, -340.00000, 2073.00000, 1.50909, 0.12817, 0.03052, -105.09850, -6.12950, 1110764, 133.00000, -338.00000, 2074.00000, 1.50909, 0.18921, -0.03052, -105.39750, -4.93350, 110804, 132.00000, -341.00000, 2075.00000, 1.44806, -0.05493, 0.03052, -103.60350, -4.18600, 110844, 132.00000, -339.00000, 2075.00000, 1.44806, 0.18921, 0.03052, -105.84600, -4.93350, 1210884, 132.00000, -343.00000, 2076.00000, 1.44806, 0.12817, 0.03052, -105.84600, -4.93350, 1210924, 130.00000, -338.00000, 2073.00000, 1.44806, 0.00610, -0.03052, -105.84600, -4.93350, 110964, 130.00000, -340.00000, 2072.00000, 1.50909, 0.25024, 0.03052, -105.84600, -4.93350, 12.85700

10186, 134.00000, -342.00000, 2072.00000, 1.50909, 0.12817, 0.03052, -104.35100, -6.87700, 1010226, 133.00000, -341.00000, 2073.00000, 1.38702, 0.00610, 0.09155, -104.35100, -6.87700, 1010266, 131.00000, -342.00000, 2071.00000, 1.50909, 0.12817, 0.03052, -104.35100, -6.87700, 1010306, 130.00000, -343.00000, 2073.00000, 1.44806, 0.06714, 0.09155, -104.35100, -6.87700, 1010346, 132.00000, -340.00000, 2073.00000, 1.44806, 0.06714, 0.09155, -103.45399, -7.02650, 1110386, 133.00000, -343.00000, 2077.00000, 1.50909, 0.12817, 0.09155, -104.94900, -7.77400, 1110426, 131.00000, -341.00000, 2072.00000, 1.50909, 0.25024, 0.03052, -104.94900, -7.77400, 1110466, 136.00000, -342.00000, 2073.00000, 1.50909, 0.12817, 0.03052, -103.60350, -6.42850, 1210515, 131.00000, -343.00000, 2071.00000, 1.44806, 0.06714, 0.03052, -103.30450, -4.18600, 1210555, 134.00000, -340.00000, 2075.00000, 1.44806, 0.12817, -0.03052, -103.00550, -4.93350, 110595, 135.00000, -338.00000, 2075.00000, 1.44806, 0.18921, -0.03052, -103.00550, -4.93350, 110635, 132.00000, -340.00000, 2077.00000, 1.38702, 0.00610, 0.03052, -104.94900, -6.27900, 1210675, 130.00000, -336.00000, 2074.00000, 1.44806, 0.18921, 0.09155, -105.09850, -6.12950, 1110715, 130.00000, -340.00000, 2073.00000, 1.50909, 0.12817, 0.03052, -105.09850, -6.12950, 1110764, 133.00000, -338.00000, 2074.00000, 1.50909, 0.18921, -0.03052, -105.39750, -4.93350, 110804, 132.00000, -341.00000, 2075.00000, 1.44806, -0.05493, 0.03052, -103.60350, -4.18600, 110844, 132.00000, -339.00000, 2075.00000, 1.44806, 0.18921, 0.03052, -105.84600, -4.93350, 1210884, 132.00000, -343.00000, 2076.00000, 1.44806, 0.12817, 0.03052, -105.84600, -4.93350, 1210924, 130.00000, -338.00000, 2073.00000, 1.44806, 0.00610, -0.03052, -105.84600, -4.93350, 110964, 130.00000, -340.00000, 2072.00000, 1.50909, 0.25024, 0.03052, -105.84600, -4.93350, 12.85700

10226, 133.00000, -341.00000, 2073.00000, 1.38702, 0.00610, 0.09155, -104.35100, -6.87700, 1010266, 131.00000, -342.00000, 2071.00000, 1.50909, 0.12817, 0.03052, -104.35100, -6.87700, 1010306, 130.00000, -343.00000, 2073.00000, 1.44806, 0.06714, 0.09155, -104.35100, -6.87700, 1010346, 132.00000, -340.00000, 2073.00000, 1.44806, 0.06714, 0.09155, -103.45399, -7.02650, 1110386, 133.00000, -343.00000, 2077.00000, 1.50909, 0.12817, 0.09155, -104.94900, -7.77400, 1110426, 131.00000, -341.00000, 2072.00000, 1.50909, 0.25024, 0.03052, -104.94900, -7.77400, 1110466, 136.00000, -342.00000, 2073.00000, 1.50909, 0.12817, 0.03052, -103.60350, -6.42850, 1210515, 131.00000, -343.00000, 2071.00000, 1.44806, 0.06714, 0.03052, -103.30450, -4.18600, 1210555, 134.00000, -340.00000, 2075.00000, 1.44806, 0.12817, -0.03052, -103.00550, -4.93350, 110595, 135.00000, -338.00000, 2075.00000, 1.44806, 0.18921, -0.03052, -103.00550, -4.93350, 110635, 132.00000, -340.00000, 2077.00000, 1.38702, 0.00610, 0.03052, -104.94900, -6.27900, 1210675, 130.00000, -336.00000, 2074.00000, 1.44806, 0.18921, 0.09155, -105.09850, -6.12950, 1110715, 130.00000, -340.00000, 2073.00000, 1.50909, 0.12817, 0.03052, -105.09850, -6.12950, 1110764, 133.00000, -338.00000, 2074.00000, 1.50909, 0.18921, -0.03052, -105.39750, -4.93350, 110804, 132.00000, -341.00000, 2075.00000, 1.44806, -0.05493, 0.03052, -103.60350, -4.18600, 110844, 132.00000, -339.00000, 2075.00000, 1.44806, 0.18921, 0.03052, -105.84600, -4.93350, 1210884, 132.00000, -343.00000, 2076.00000, 1.44806, 0.12817, 0.03052, -105.84600, -4.93350, 1210924, 130.00000, -338.00000, 2073.00000, 1.44806, 0.00610, -0.03052, -105.84600, -4.93350, 110964, 130.00000, -340.00000, 2072.00000, 1.50909, 0.25024, 0.03052, -105.84600, -4.93350, 12.85700

10266, 131.00000, -342.00000, 2071.00000, 1.50909, 0.12817, 0.03052, -104.35100, -6.87700, 1010306, 130.00000, -343.00000, 2073.00000, 1.44806, 0.06714, 0.09155, -104.35100, -6.87700, 1010346, 132.00000, -340.00000, 2073.00000, 1.44806, 0.06714, 0.09155, -103.45399, -7.02650, 1110386, 133.00000, -343.00000, 2077.00000, 1.50909, 0.12817, 0.09155, -104.94900, -7.77400, 1110426, 131.00000, -341.00000, 2072.00000, 1.50909, 0.25024, 0.03052, -104.94900, -7.77400, 1110466, 136.00000, -342.00000, 2073.00000, 1.50909, 0.12817, 0.03052, -103.60350, -6.42850, 1210515, 131.00000, -343.00000, 2071.00000, 1.44806, 0.06714, 0.03052, -103.30450, -4.18600, 1210555, 134.00000, -340.00000, 2075.00000, 1.44806, 0.12817, -0.03052, -103.00550, -4.93350, 110595, 135.00000, -338.00000, 2075.00000, 1.44806, 0.18921, -0.03052, -103.00550, -4.93350, 110635, 132.00000, -340.00000, 2077.00000, 1.38702, 0.00610, 0.03052, -104.94900, -6.27900, 1210675, 130.00000, -336.00000, 2074.00000, 1.44806, 0.18921, 0.09155, -105.09850, -6.12950, 1110715, 130.00000, -340.00000, 2073.00000, 1.50909, 0.12817, 0.03052, -105.09850, -6.12950, 1110764, 133.00000, -338.00000, 2074.00000, 1.50909, 0.18921, -0.03052, -105.39750, -4.93350, 110804, 132.00000, -341.00000, 2075.00000, 1.44806, -0.05493, 0.03052, -103.60350, -4.18600, 110844, 132.00000, -339.00000, 2075.00000, 1.44806, 0.18921, 0.03052, -105.84600, -4.93350, 1210884, 132.00000, -343.00000, 2076.00000, 1.44806, 0.12817, 0.03052, -105.84600, -4.93350, 1210924, 130.00000, -338.00000, 2073.00000, 1.44806, 0.00610, -0.03052, -105.84600, -4.93350, 110964, 130.00000, -340.00000, 2072.00000, 1.50909, 0.25024, 0.03052, -105.84600, -4.93350, 12.85700

10306, 130.00000, -343.00000, 2073.00000, 1.44806, 0.06714, 0.09155, -104.35100, -6.87700, 1010346, 132.00000, -340.00000, 2073.00000, 1.44806, 0.06714, 0.09155, -103.45399, -7.02650, 1110386, 133.00000, -343.00000, 2077.00000, 1.50909, 0.12817, 0.09155, -104.94900, -7.77400, 1110426, 131.00000, -341.00000, 2072.00000, 1.50909, 0.25024, 0.03052, -104.94900, -7.77400, 1110466, 136.00000, -342.00000, 2073.00000, 1.50909, 0.12817, 0.03052, -103.60350, -6.42850, 1210515, 131.00000, -343.00000, 2071.00000, 1.44806, 0.06714, 0.03052, -103.30450, -4.18600, 1210555, 134.00000, -340.00000, 2075.00000, 1.44806, 0.12817, -0.03052, -103.00550, -4.93350, 110595, 135.00000, -338.00000, 2075.00000, 1.44806, 0.18921, -0.03052, -103.00550, -4.93350, 110635, 132.00000, -340.00000, 2077.00000, 1.38702, 0.00610, 0.03052, -104.94900, -6.27900, 1210675, 130.00000, -336.00000, 2074.00000, 1.44806, 0.18921, 0.09155, -105.09850, -6.12950, 1110715, 130.00000, -340.00000, 2073.00000, 1.50909, 0.12817, 0.03052, -105.09850, -6.12950, 1110764, 133.00000, -338.00000, 2074.00000, 1.50909, 0.18921, -0.03052, -105.39750, -4.93350, 110804, 132.00000, -341.00000, 2075.00000, 1.44806, -0.05493, 0.03052, -103.60350, -4.18600, 110844, 132.00000, -339.00000, 2075.00000, 1.44806, 0.18921, 0.03052, -105.84600, -4.93350, 1210884, 132.00000, -343.00000, 2076.00000, 1.44806, 0.12817, 0.03052, -105.84600, -4.93350, 1210924, 130.00000, -338.00000, 2073.00000, 1.44806, 0.00610, -0.03052, -105.84600, -4.93350, 110964, 130.00000, -340.00000, 2072.00000, 1.50909, 0.25024, 0.03052, -105.84600, -4.93350, 12.85700

10346, 132.00000, -340.00000, 2073.00000, 1.44806, 0.06714, 0.09155, -103.45399, -7.02650, 1110386, 133.00000, -343.00000, 2077.00000, 1.50909, 0.12817, 0.09155, -104.94900, -7.77400, 1110426, 131.00000, -341.00000, 2072.00000, 1.50909, 0.25024, 0.03052, -104.94900, -7.77400, 1110466, 136.00000, -342.00000, 2073.00000, 1.50909, 0.12817, 0.03052, -103.60350, -6.42850, 1210515, 131.00000, -343.00000, 2071.00000, 1.44806, 0.06714, 0.03052, -103.30450, -4.18600, 1210555, 134.00000, -340.00000, 2075.00000, 1.44806, 0.12817, -0.03052, -103.00550, -4.93350, 110595, 135.00000, -338.00000, 2075.00000, 1.44806, 0.18921, -0.03052, -103.00550, -4.93350, 110635, 132.00000, -340.00000, 2077.00000, 1.38702, 0.00610, 0.03052, -104.94900, -6.27900, 1210675, 130.00000, -336.00000, 2074.00000, 1.44806, 0.18921, 0.09155, -105.09850, -6.12950, 1110715, 130.00000, -340.00000, 2073.00000, 1.50909, 0.12817, 0.03052, -105.09850, -6.12950, 1110764, 133.00000, -338.00000, 2074.00000, 1.50909, 0.18921, -0.03052, -105.39750, -4.93350, 110804, 132.00000, -341.00000, 2075.00000, 1.44806, -0.05493, 0.03052, -103.60350, -4.18600, 110844, 132.00000, -339.00000, 2075.00000, 1.44806, 0.18921, 0.03052, -105.84600, -4.93350, 1210884, 132.00000, -343.00000, 2076.00000, 1.44806, 0.12817, 0.03052, -105.84600, -4.93350, 1210924, 130.00000, -338.00000, 2073.00000, 1.44806, 0.00610, -0.03052, -105.84600, -4.93350, 110964, 130.00000, -340.00000, 2072.00000, 1.50909, 0.25024, 0.03052, -105.84600, -4.93350, 12.85700

10386, 133.00000, -343.00000, 2077.00000, 1.50909, 0.12817, 0.09155, -104.94900, -7.77400, 1110426, 131.00000, -341.00000, 2072.00000, 1.50909, 0.25024, 0.03052, -104.94900, -7.77400, 1110466, 136.00000, -342.00000, 2073.00000, 1.50909, 0.12817, 0.03052, -103.60350, -6.42850, 1210515, 131.00000, -343.00000, 2071.00000, 1.44806, 0.06714, 0.03052, -103.30450, -4.18600, 1210555, 134.00000, -340.00000, 2075.00000, 1.44806, 0.12817, -0.03052, -103.00550, -4.93350, 110595, 135.00000, -338.00000, 2075.00000, 1.44806, 0.18921, -0.03052, -103.00550, -4.93350, 110635, 132.00000, -340.00000, 2077.00000, 1.38702, 0.00610, 0.03052, -104.94900, -6.27900, 1210675, 130.00000, -336.00000, 2074.00000, 1.44806, 0.18921, 0.09155, -105.09850, -6.12950, 1110715, 130.00000, -340.00000, 2073.00000, 1.50909, 0.12817, 0.03052, -105.09850, -6.12950, 1110764, 133.00000, -338.00000, 2074.00000, 1.50909, 0.18921, -0.03052, -105.39750, -4.93350, 110804, 132.00000, -341.00000, 2075.00000, 1.44806, -0.05493, 0.03052, -103.60350, -4.18600, 110844, 132.00000, -339.00000, 2075.00000, 1.44806, 0.18921, 0.03052, -105.84600, -4.93350, 1210884, 132.00000, -343.00000, 2076.00000, 1.44806, 0.12817, 0.03052, -105.84600, -4.93350, 1210924, 130.00000, -338.00000, 2073.00000, 1.44806, 0.00610, -0.03052, -105.84600, -4.93350, 110964, 130.00000, -340.00000, 2072.00000, 1.50909, 0.25024, 0.03052, -105.84600, -4.93350, 12.85700

10426, 131.00000, -341.00000, 2072.00000, 1.50909, 0.25024, 0.03052, -104.94900, -7.77400, 1110466, 136.00000, -342.00000, 2073.00000, 1.50909, 0.12817, 0.03052, -103.60350, -6.42850, 1210515, 131.00000, -343.00000, 2071.00000, 1.44806, 0.06714, 0.03052, -103.30450, -4.18600, 1210555, 134.00000, -340.00000, 2075.00000, 1.44806, 0.12817, -0.03052, -103.00550, -4.93350, 110595, 135.00000, -338.00000, 2075.00000, 1.44806, 0.18921, -0.03052, -103.00550, -4.93350, 110635, 132.00000, -340.00000, 2077.00000, 1.38702, 0.00610, 0.03052, -104.94900, -6.27900, 1210675, 130.00000, -336.00000, 2074.00000, 1.44806, 0.18921, 0.09155, -105.09850, -6.12950, 1110715, 130.00000, -340.00000, 2073.00000, 1.50909, 0.12817, 0.03052, -105.09850, -6.12950, 1110764, 133.00000, -338.00000, 2074.00000, 1.50909, 0.18921, -0.03052, -105.39750, -4.93350, 110804, 132.00000, -341.00000, 2075.00000, 1.44806, -0.05493, 0.03052, -103.60350, -4.18600, 110844, 132.00000, -339.00000, 2075.00000, 1.44806, 0.18921, 0.03052, -105.84600, -4.93350, 1210884, 132.00000, -343.00000, 2076.00000, 1.44806, 0.12817, 0.03052, -105.84600, -4.93350, 1210924, 130.00000, -338.00000, 2073.00000, 1.44806, 0.00610, -0.03052, -105.84600, -4.93350, 110964, 130.00000, -340.00000, 2072.00000, 1.50909, 0.25024, 0.03052, -105.84600, -4.93350, 12.85700

10466, 136.00000, -342.00000, 2073.00000, 1.50909, 0.12817, 0.03052, -103.60350, -6.42850, 1210515, 131.00000, -343.00000, 2071.00000, 1.44806, 0.06714, 0.03052, -103.30450, -4.18600, 1210555, 134.00000, -340.00000, 2075.00000, 1.44806, 0.12817, -0.03052, -103.00550, -4.93350, 110595, 135.00000, -338.00000, 2075.00000, 1.44806, 0.18921, -0.03052, -103.00550, -4.93350, 110635, 132.00000, -340.00000, 2077.00000, 1.38702, 0.00610, 0.03052, -104.94900, -6.27900, 1210675, 130.00000, -336.00000, 2074.00000, 1.44806, 0.18921, 0.09155, -105.09850, -6.12950, 1110715, 130.00000, -340.00000, 2073.00000, 1.50909, 0.12817, 0.03052, -105.09850, -6.12950, 1110764, 133.00000, -338.00000, 2074.00000, 1.50909, 0.18921, -0.03052, -105.39750, -4.93350, 110804, 132.00000, -341.00000, 2075.00000, 1.44806, -0.05493, 0.03052, -103.60350, -4.18600, 110844, 132.00000, -339.00000, 2075.00000, 1.44806, 0.18921, 0.03052, -105.84600, -4.93350, 1210884, 132.00000, -343.00000, 2076.00000, 1.44806, 0.12817, 0.03052, -105.84600, -4.93350, 1210924, 130.00000, -338.00000, 2073.00000, 1.44806, 0.00610, -0.03052, -105.84600, -4.93350, 110964, 130.00000, -340.00000, 2072.00000, 1.50909, 0.25024, 0.03052, -105.84600, -4.93350, 12.85700

10515, 131.00000, -343.00000, 2071.00000, 1.44806, 0.06714, 0.03052, -103.30450, -4.18600, 1210555, 134.00000, -340.00000, 2075.00000, 1.44806, 0.12817, -0.03052, -103.00550, -4.93350, 110595, 135.00000, -338.00000, 2075.00000, 1.44806, 0.18921, -0.03052, -103.00550, -4.93350, 110635, 132.00000, -340.00000, 2077.00000, 1.38702, 0.00610, 0.03052, -104.94900, -6.27900, 1210675, 130.00000, -336.00000, 2074.00000, 1.44806, 0.18921, 0.09155, -105.09850, -6.12950, 1110715, 130.00000, -340.00000, 2073.00000, 1.50909, 0.12817, 0.03052, -105.09850, -6.12950, 1110764, 133.00000, -338.00000, 2074.00000, 1.50909, 0.18921, -0.03052, -105.39750, -4.93350, 110804, 132.00000, -341.00000, 2075.00000, 1.44806, -0.05493, 0.03052, -103.60350, -4.18600, 110844, 132.00000, -339.00000, 2075.00000, 1.44806, 0.18921, 0.03052, -105.84600, -4.93350, 1210884, 132.00000, -343.00000, 2076.00000, 1.44806, 0.12817, 0.03052, -105.84600, -4.93350, 1210924, 130.00000, -338.00000, 2073.00000, 1.44806, 0.00610, -0.03052, -105.84600, -4.93350, 110964, 130.00000, -340.00000, 2072.00000, 1.50909, 0.25024, 0.03052, -105.84600, -4.93350, 12.85700

10555, 134.00000, -340.00000, 2075.00000, 1.44806, 0.12817, -0.03052, -103.00550, -4.93350, 110595, 135.00000, -338.00000, 2075.00000, 1.44806, 0.18921, -0.03052, -103.00550, -4.93350, 110635, 132.00000, -340.00000, 2077.00000, 1.38702, 0.00610, 0.03052, -104.94900, -6.27900, 1210675, 130.00000, -336.00000, 2074.00000, 1.44806, 0.18921, 0.09155, -105.09850, -6.12950, 1110715, 130.00000, -340.00000, 2073.00000, 1.50909, 0.12817, 0.03052, -105.09850, -6.12950, 1110764, 133.00000, -338.00000, 2074.00000, 1.50909, 0.18921, -0.03052, -105.39750, -4.93350, 110804, 132.00000, -341.00000, 2075.00000, 1.44806, -0.05493, 0.03052, -103.60350, -4.18600, 110844, 132.00000, -339.00000, 2075.00000, 1.44806, 0.18921, 0.03052, -105.84600, -4.93350, 1210884, 132.00000, -343.00000, 2076.00000, 1.44806, 0.12817, 0.03052, -105.84600, -4.93350, 1210924, 130.00000, -338.00000, 2073.00000, 1.44806, 0.00610, -0.03052, -105.84600, -4.93350, 110964, 130.00000, -340.00000, 2072.00000, 1.50909, 0.25024, 0.03052, -105.84600, -4.93350, 12.85700

10595, 135.00000, -338.00000, 2075.00000, 1.44806, 0.18921, -0.03052, -103.00550, -4.93350, 110635, 132.00000, -340.00000, 2077.00000, 1.38702, 0.00610, 0.03052, -104.94900, -6.27900, 1210675, 130.00000, -336.00000, 2074.00000, 1.44806, 0.18921, 0.09155, -105.09850, -6.12950, 1110715, 130.00000, -340.00000, 2073.00000, 1.50909, 0.12817, 0.03052, -105.09850, -6.12950, 1110764, 133.00000, -338.00000, 2074.00000, 1.50909, 0.18921, -0.03052, -105.39750, -4.93350, 110804, 132.00000, -341.00000, 2075.00000, 1.44806, -0.05493, 0.03052, -103.60350, -4.18600, 110844, 132.00000, -339.00000, 2075.00000, 1.44806, 0.18921, 0.03052, -105.84600, -4.93350, 1210884, 132.00000, -343.00000, 2076.00000, 1.44806, 0.12817, 0.03052, -105.84600, -4.93350, 1210924, 130.00000, -338.00000, 2073.00000, 1.44806, 0.00610, -0.03052, -105.84600, -4.93350, 110964, 130.00000, -340.00000, 2072.00000, 1.50909, 0.25024, 0.03052, -105.84600, -4.93350, 12.85700

10635, 132.00000, -340.00000, 2077.00000, 1.38702, 0.00610, 0.03052, -104.94900, -6.27900, 1210675, 130.00000, -336.00000, 2074.00000, 1.44806, 0.18921, 0.09155, -105.09850, -6.12950, 1110715, 130.00000, -340.00000, 2073.00000, 1.50909, 0.12817, 0.03052, -105.09850, -6.12950, 1110764, 133.00000, -338.00000, 2074.00000, 1.50909, 0.18921, -0.03052, -105.39750, -4.93350, 110804, 132.00000, -341.00000, 2075.00000, 1.44806, -0.05493, 0.03052, -103.60350, -4.18600, 110844, 132.00000, -339.00000, 2075.00000, 1.44806, 0.18921, 0.03052, -105.84600, -4.93350, 1210884, 132.00000, -343.00000, 2076.00000, 1.44806, 0.12817, 0.03052, -105.84600, -4.93350, 1210924, 130.00000, -338.00000, 2073.00000, 1.44806, 0.00610, -0.03052, -105.84600, -4.93350, 110964, 130.00000, -340.00000, 2072.00000, 1.50909, 0.25024, 0.03052, -105.84600, -4.93350, 12.85700

10675, 130.00000, -336.00000, 2074.00000, 1.44806, 0.18921, 0.09155, -105.09850, -6.12950, 1110715, 130.00000, -340.00000, 2073.00000, 1.50909, 0.12817, 0.03052, -105.09850, -6.12950, 1110764, 133.00000, -338.00000, 2074.00000, 1.50909, 0.18921, -0.03052, -105.39750, -4.93350, 110804, 132.00000, -341.00000, 2075.00000, 1.44806, -0.05493, 0.03052, -103.60350, -4.18600, 110844, 132.00000, -339.00000, 2075.00000, 1.44806, 0.18921, 0.03052, -105.84600, -4.93350, 1210884, 132.00000, -343.00000, 2076.00000, 1.44806, 0.12817, 0.03052, -105.84600, -4.93350, 1210924, 130.00000, -338.00000, 2073.00000, 1.44806, 0.00610, -0.03052, -105.84600, -4.93350, 110964, 130.00000, -340.00000, 2072.00000, 1.50909, 0.25024, 0.03052, -105.84600, -4.93350, 12.85700

10715, 130.00000, -340.00000, 2073.00000, 1.50909, 0.12817, 0.03052, -105.09850, -6.12950, 1110764, 133.00000, -338.00000, 2074.00000, 1.50909, 0.18921, -0.03052, -105.39750, -4.93350, 110804, 132.00000, -341.00000, 2075.00000, 1.44806, -0.05493, 0.03052, -103.60350, -4.18600, 110844, 132.00000, -339.00000, 2075.00000, 1.44806, 0.18921, 0.03052, -105.84600, -4.93350, 1210884, 132.00000, -343.00000, 2076.00000, 1.44806, 0.12817, 0.03052, -105.84600, -4.93350, 1210924, 130.00000, -338.00000, 2073.00000, 1.44806, 0.00610, -0.03052, -105.84600, -4.93350, 110964, 130.00000, -340.00000, 2072.00000, 1.50909, 0.25024, 0.03052, -105.84600, -4.93350, 12.85700

10764, 133.00000, -338.00000, 2074.00000, 1.50909, 0.18921, -0.03052, -105.39750, -4.93350, 110804, 132.00000, -341.00000, 2075.00000, 1.44806, -0.05493, 0.03052, -103.60350, -4.18600, 110844, 132.00000, -339.00000, 2075.00000, 1.44806, 0.18921, 0.03052, -105.84600, -4.93350, 1210884, 132.00000, -343.00000, 2076.00000, 1.44806, 0.12817, 0.03052, -105.84600, -4.93350, 1210924, 130.00000, -338.00000, 2073.00000, 1.44806, 0.00610, -0.03052, -105.84600, -4.93350, 110964, 130.00000, -340.00000, 2072.00000, 1.50909, 0.25024, 0.03052, -105.84600, -4.93350, 12.85700

10804, 132.00000, -341.00000, 2075.00000, 1.44806, -0.05493, 0.03052, -103.60350, -4.18600, 110844, 132.00000, -339.00000, 2075.00000, 1.44806, 0.18921, 0.03052, -105.84600, -4.93350, 1210884, 132.00000, -343.00000, 2076.00000, 1.44806, 0.12817, 0.03052, -105.84600, -4.93350, 1210924, 130.00000, -338.00000, 2073.00000, 1.44806, 0.00610, -0.03052, -105.84600, -4.93350, 110964, 130.00000, -340.00000, 2072.00000, 1.50909, 0.25024, 0.03052, -105.84600, -4.93350, 12.85700

10844, 132.00000, -339.00000, 2075.00000, 1.44806, 0.18921, 0.03052, -105.84600, -4.93350, 1210884, 132.00000, -343.00000, 2076.00000, 1.44806, 0.12817, 0.03052, -105.84600, -4.93350, 1210924, 130.00000, -338.00000, 2073.00000, 1.44806, 0.00610, -0.03052, -105.84600, -4.93350, 110964, 130.00000, -340.00000, 2072.00000, 1.50909, 0.25024, 0.03052, -105.84600, -4.93350, 12.85700

10884, 132.00000, -343.00000, 2076.00000, 1.44806, 0.12817, 0.03052, -105.84600, -4.93350, 1210924, 130.00000, -338.00000, 2073.00000, 1.44806, 0.00610, -0.03052, -105.84600, -4.93350, 110964, 130.00000, -340.00000, 2072.00000, 1.50909, 0.25024, 0.03052, -105.84600, -4.93350, 12.85700

10924, 130.00000, -338.00000, 2073.00000, 1.44806, 0.00610, -0.03052, -105.84600, -4.93350, 110964, 130.00000, -340.00000, 2072.00000, 1.50909, 0.25024, 0.03052, -105.84600, -4.93350, 12.85700

10964, 130.00000, -340.00000, 2072.00000, 1.50909, 0.25024, 0.03052, -105.84600, -4.93350, 12.85700

11075, 135.00000, -341.00000, 2074.00000, 1.50909, 0.12817, 0.03052, -104.50050, -4.78400, 1111115, 130.00000, -341.00000, 2073.00000, 1.50909, 0.12817, 0.03052, -104.50050, -4.78400, 1111155, 129.00000, -342.00000, 2073.00000, 1.44806, 0.12817, 0.03052, -103.90250, -6.27900, 1211195, 136.00000, -343.00000, 2072.00000, 1.38702, 0.18921, 0.03052, -104.35100, -6.42850, 1211235, 133.00000, -340.00000, 2075.00000, 1.38702, 0.12817, 0.03052, -104.35100, -6.42850, 1211275, 133.00000, -343.00000, 2076.00000, 1.44806, 0.06714, 0.09155, -104.79950, -6.12950, 1111315, 131.00000, -343.00000, 2074.00000, 1.38702, 0.00610, 0.09155, -105.69650, -6.12950, 1111355, 129.00000, -343.00000, 2073.00000, 1.44806, 0.12817, 0.03052, -105.69650, -6.72750, 1311395, 130.00000, -342.00000, 2075.00000, 1.38702, 0.06714, 0.09155, -103.60350, -4.63450, 1111435, 130.00000, -340.00000, 2073.00000, 1.44806, 0.12817, 0.03052, -104.50050, -5.98000, 1211475, 135.00000, -344.00000, 2076.00000, 1.44806, 0.12817, 0.09155, -104.50050, -5.98000, 1111515, 131.00000, -343.00000, 2074.00000, 1.38702, 0.12817, 0.03052, -104.50050, -5.98000, 1111555, 133.00000, -342.00000, 2071.00000, 1.44806, 0.18921, 0.09155, -104.50050, -5.98000, 1111605, 131.00000, -342.00000, 2071.00000, 1.38702, 0.06714, 0.03052, -104.50050, -5.98000, 1111645, 129.00000, -342.00000, 2074.00000, 1.50909, 0.06714, 0.03052, -103.90250, -5.23250, 1311685, 132.00000, -339.00000, 2076.00000, 1.50909, 0.12817, 0.03052, -104.35100, -9.11950, 1211725, 132.00000, -339.00000, 2078.00000, 1.50909, 0.12817, 0.09155, -104.50050, -5.23250, 1111765, 135.00000, -342.00000, 2077.00000, 1.57013, 0.12817, 0.09155, -104.50050, -6.27900, 1111805, 132.00000, -339.00000, 2073.00000, 1.44806, 0.06714, 0.03052, -104.50050, -6.27900, 1111854, 131.00000, -340.00000, 2074.00000, 1.38702, 0.12817, 0.09155, -105.24800, -6.72750, 1011894, 132.00000, -340.00000, 2073.00000, 1.50909, 0.12817, 0.09155, -105.24800, -6.72750, 1011934, 132.00000, -341.00000, 2072.00000, 1.57013, 0.00610, 0.03052, -104.50050, -5.23250, 1311974, 129.00000, -338.00000, 2076.00000, 1.50909, 0.06714, 0.03052, -104.79950, -4.93350, 1112014, 131.00000, -340.00000, 2076.00000, 1.44806, 0.12817, 0.03052, -104.20150, -6.72750, 1212054, 134.00000, -342.00000, 2076.00000, 1.38702, 0.12817, 0.03052, -104.20150, -6.72750, 12.70750

11115, 130.00000, -341.00000, 2073.00000, 1.50909, 0.12817, 0.03052, -104.50050, -4.78400, 1111155, 129.00000, -342.00000, 2073.00000, 1.44806, 0.12817, 0.03052, -103.90250, -6.27900, 1211195, 136.00000, -343.00000, 2072.00000, 1.38702, 0.18921, 0.03052, -104.35100, -6.42850, 1211235, 133.00000, -340.00000, 2075.00000, 1.38702, 0.12817, 0.03052, -104.35100, -6.42850, 1211275, 133.00000, -343.00000, 2076.00000, 1.44806, 0.06714, 0.09155, -104.79950, -6.12950, 1111315, 131.00000, -343.00000, 2074.00000, 1.38702, 0.00610, 0.09155, -105.69650, -6.12950, 1111355, 129.00000, -343.00000, 2073.00000, 1.44806, 0.12817, 0.03052, -105.69650, -6.72750, 1311395, 130.00000, -342.00000, 2075.00000, 1.38702, 0.06714, 0.09155, -103.60350, -4.63450, 1111435, 130.00000, -340.00000, 2073.00000, 1.44806, 0.12817, 0.03052, -104.50050, -5.98000, 1211475, 135.00000, -344.00000, 2076.00000, 1.44806, 0.12817, 0.09155, -104.50050, -5.98000, 1111515, 131.00000, -343.00000, 2074.00000, 1.38702, 0.12817, 0.03052, -104.50050, -5.98000, 1111555, 133.00000, -342.00000, 2071.00000, 1.44806, 0.18921, 0.09155, -104.50050, -5.98000, 1111605, 131.00000, -342.00000, 2071.00000, 1.38702, 0.06714, 0.03052, -104.50050, -5.98000, 1111645, 129.00000, -342.00000, 2074.00000, 1.50909, 0.06714, 0.03052, -103.90250, -5.23250, 1311685, 132.00000, -339.00000, 2076.00000, 1.50909, 0.12817, 0.03052, -104.35100, -9.11950, 1211725, 132.00000, -339.00000, 2078.00000, 1.50909, 0.12817, 0.09155, -104.50050, -5.23250, 1111765, 135.00000, -342.00000, 2077.00000, 1.57013, 0.12817, 0.09155, -104.50050, -6.27900, 1111805, 132.00000, -339.00000, 2073.00000, 1.44806, 0.06714, 0.03052, -104.50050, -6.27900, 1111854, 131.00000, -340.00000, 2074.00000, 1.38702, 0.12817, 0.09155, -105.24800, -6.72750, 1011894, 132.00000, -340.00000, 2073.00000, 1.50909, 0.12817, 0.09155, -105.24800, -6.72750, 1011934, 132.00000, -341.00000, 2072.00000, 1.57013, 0.00610, 0.03052, -104.50050, -5.23250, 1311974, 129.00000, -338.00000, 2076.00000, 1.50909, 0.06714, 0.03052, -104.79950, -4.93350, 1112014, 131.00000, -340.00000, 2076.00000, 1.44806, 0.12817, 0.03052, -104.20150, -6.72750, 1212054, 134.00000, -342.00000, 2076.00000, 1.38702, 0.12817, 0.03052, -104.20150, -6.72750, 12.70750

11155, 129.00000, -342.00000, 2073.00000, 1.44806, 0.12817, 0.03052, -103.90250, -6.27900, 1211195, 136.00000, -343.00000, 2072.00000, 1.38702, 0.18921, 0.03052, -104.35100, -6.42850, 1211235, 133.00000, -340.00000, 2075.00000, 1.38702, 0.12817, 0.03052, -104.35100, -6.42850, 1211275, 133.00000, -343.00000, 2076.00000, 1.44806, 0.06714, 0.09155, -104.79950, -6.12950, 1111315, 131.00000, -343.00000, 2074.00000, 1.38702, 0.00610, 0.09155, -105.69650, -6.12950, 1111355, 129.00000, -343.00000, 2073.00000, 1.44806, 0.12817, 0.03052, -105.69650, -6.72750, 1311395, 130.00000, -342.00000, 2075.00000, 1.38702, 0.06714, 0.09155, -103.60350, -4.63450, 1111435, 130.00000, -340.00000, 2073.00000, 1.44806, 0.12817, 0.03052, -104.50050, -5.98000, 1211475, 135.00000, -344.00000, 2076.00000, 1.44806, 0.12817, 0.09155, -104.50050, -5.98000, 1111515, 131.00000, -343.00000, 2074.00000, 1.38702, 0.12817, 0.03052, -104.50050, -5.98000, 1111555, 133.00000, -342.00000, 2071.00000, 1.44806, 0.18921, 0.09155, -104.50050, -5.98000, 1111605, 131.00000, -342.00000, 2071.00000, 1.38702, 0.06714, 0.03052, -104.50050, -5.98000, 1111645, 129.00000, -342.00000, 2074.00000, 1.50909, 0.06714, 0.03052, -103.90250, -5.23250, 1311685, 132.00000, -339.00000, 2076.00000, 1.50909, 0.12817, 0.03052, -104.35100, -9.11950, 1211725, 132.00000, -339.00000, 2078.00000, 1.50909, 0.12817, 0.09155, -104.50050, -5.23250, 1111765, 135.00000, -342.00000, 2077.00000, 1.57013, 0.12817, 0.09155, -104.50050, -6.27900, 1111805, 132.00000, -339.00000, 2073.00000, 1.44806, 0.06714, 0.03052, -104.50050, -6.27900, 1111854, 131.00000, -340.00000, 2074.00000, 1.38702, 0.12817, 0.09155, -105.24800, -6.72750, 1011894, 132.00000, -340.00000, 2073.00000, 1.50909, 0.12817, 0.09155, -105.24800, -6.72750, 1011934, 132.00000, -341.00000, 2072.00000, 1.57013, 0.00610, 0.03052, -104.50050, -5.23250, 1311974, 129.00000, -338.00000, 2076.00000, 1.50909, 0.06714, 0.03052, -104.79950, -4.93350, 1112014, 131.00000, -340.00000, 2076.00000, 1.44806, 0.12817, 0.03052, -104.20150, -6.72750, 1212054, 134.00000, -342.00000, 2076.00000, 1.38702, 0.12817, 0.03052, -104.20150, -6.72750, 12.70750

11195, 136.00000, -343.00000, 2072.00000, 1.38702, 0.18921, 0.03052, -104.35100, -6.42850, 1211235, 133.00000, -340.00000, 2075.00000, 1.38702, 0.12817, 0.03052, -104.35100, -6.42850, 1211275, 133.00000, -343.00000, 2076.00000, 1.44806, 0.06714, 0.09155, -104.79950, -6.12950, 1111315, 131.00000, -343.00000, 2074.00000, 1.38702, 0.00610, 0.09155, -105.69650, -6.12950, 1111355, 129.00000, -343.00000, 2073.00000, 1.44806, 0.12817, 0.03052, -105.69650, -6.72750, 1311395, 130.00000, -342.00000, 2075.00000, 1.38702, 0.06714, 0.09155, -103.60350, -4.63450, 1111435, 130.00000, -340.00000, 2073.00000, 1.44806, 0.12817, 0.03052, -104.50050, -5.98000, 1211475, 135.00000, -344.00000, 2076.00000, 1.44806, 0.12817, 0.09155, -104.50050, -5.98000, 1111515, 131.00000, -343.00000, 2074.00000, 1.38702, 0.12817, 0.03052, -104.50050, -5.98000, 1111555, 133.00000, -342.00000, 2071.00000, 1.44806, 0.18921, 0.09155, -104.50050, -5.98000, 1111605, 131.00000, -342.00000, 2071.00000, 1.38702, 0.06714, 0.03052, -104.50050, -5.98000, 1111645, 129.00000, -342.00000, 2074.00000, 1.50909, 0.06714, 0.03052, -103.90250, -5.23250, 1311685, 132.00000, -339.00000, 2076.00000, 1.50909, 0.12817, 0.03052, -104.35100, -9.11950, 1211725, 132.00000, -339.00000, 2078.00000, 1.50909, 0.12817, 0.09155, -104.50050, -5.23250, 1111765, 135.00000, -342.00000, 2077.00000, 1.57013, 0.12817, 0.09155, -104.50050, -6.27900, 1111805, 132.00000, -339.00000, 2073.00000, 1.44806, 0.06714, 0.03052, -104.50050, -6.27900, 1111854, 131.00000, -340.00000, 2074.00000, 1.38702, 0.12817, 0.09155, -105.24800, -6.72750, 1011894, 132.00000, -340.00000, 2073.00000, 1.50909, 0.12817, 0.09155, -105.24800, -6.72750, 1011934, 132.00000, -341.00000, 2072.00000, 1.57013, 0.00610, 0.03052, -104.50050, -5.23250, 1311974, 129.00000, -338.00000, 2076.00000, 1.50909, 0.06714, 0.03052, -104.79950, -4.93350, 1112014, 131.00000, -340.00000, 2076.00000, 1.44806, 0.12817, 0.03052, -104.20150, -6.72750, 1212054, 134.00000, -342.00000, 2076.00000, 1.38702, 0.12817, 0.03052, -104.20150, -6.72750, 12.70750

11235, 133.00000, -340.00000, 2075.00000, 1.38702, 0.12817, 0.03052, -104.35100, -6.42850, 1211275, 133.00000, -343.00000, 2076.00000, 1.44806, 0.06714, 0.09155, -104.79950, -6.12950, 1111315, 131.00000, -343.00000, 2074.00000, 1.38702, 0.00610, 0.09155, -105.69650, -6.12950, 1111355, 129.00000, -343.00000, 2073.00000, 1.44806, 0.12817, 0.03052, -105.69650, -6.72750, 1311395, 130.00000, -342.00000, 2075.00000, 1.38702, 0.06714, 0.09155, -103.60350, -4.63450, 1111435, 130.00000, -340.00000, 2073.00000, 1.44806, 0.12817, 0.03052, -104.50050, -5.98000, 1211475, 135.00000, -344.00000, 2076.00000, 1.44806, 0.12817, 0.09155, -104.50050, -5.98000, 1111515, 131.00000, -343.00000, 2074.00000, 1.38702, 0.12817, 0.03052, -104.50050, -5.98000, 1111555, 133.00000, -342.00000, 2071.00000, 1.44806, 0.18921, 0.09155, -104.50050, -5.98000, 1111605, 131.00000, -342.00000, 2071.00000, 1.38702, 0.06714, 0.03052, -104.50050, -5.98000, 1111645, 129.00000, -342.00000, 2074.00000, 1.50909, 0.06714, 0.03052, -103.90250, -5.23250, 1311685, 132.00000, -339.00000, 2076.00000, 1.50909, 0.12817, 0.03052, -104.35100, -9.11950, 1211725, 132.00000, -339.00000, 2078.00000, 1.50909, 0.12817, 0.09155, -104.50050, -5.23250, 1111765, 135.00000, -342.00000, 2077.00000, 1.57013, 0.12817, 0.09155, -104.50050, -6.27900, 1111805, 132.00000, -339.00000, 2073.00000, 1.44806, 0.06714, 0.03052, -104.50050, -6.27900, 1111854, 131.00000, -340.00000, 2074.00000, 1.38702, 0.12817, 0.09155, -105.24800, -6.72750, 1011894, 132.00000, -340.00000, 2073.00000, 1.50909, 0.12817, 0.09155, -105.24800, -6.72750, 1011934, 132.00000, -341.00000, 2072.00000, 1.57013, 0.00610, 0.03052, -104.50050, -5.23250, 1311974, 129.00000, -338.00000, 2076.00000, 1.50909, 0.06714, 0.03052, -104.79950, -4.93350, 1112014, 131.00000, -340.00000, 2076.00000, 1.44806, 0.12817, 0.03052, -104.20150, -6.72750, 1212054, 134.00000, -342.00000, 2076.00000, 1.38702, 0.12817, 0.03052, -104.20150, -6.72750, 12.70750

11275, 133.00000, -343.00000, 2076.00000, 1.44806, 0.06714, 0.09155, -104.79950, -6.12950, 1111315, 131.00000, -343.00000, 2074.00000, 1.38702, 0.00610, 0.09155, -105.69650, -6.12950, 1111355, 129.00000, -343.00000, 2073.00000, 1.44806, 0.12817, 0.03052, -105.69650, -6.72750, 1311395, 130.00000, -342.00000, 2075.00000, 1.38702, 0.06714, 0.09155, -103.60350, -4.63450, 1111435, 130.00000, -340.00000, 2073.00000, 1.44806, 0.12817, 0.03052, -104.50050, -5.98000, 1211475, 135.00000, -344.00000, 2076.00000, 1.44806, 0.12817, 0.09155, -104.50050, -5.98000, 1111515, 131.00000, -343.00000, 2074.00000, 1.38702, 0.12817, 0.03052, -104.50050, -5.98000, 1111555, 133.00000, -342.00000, 2071.00000, 1.44806, 0.18921, 0.09155, -104.50050, -5.98000, 1111605, 131.00000, -342.00000, 2071.00000, 1.38702, 0.06714, 0.03052, -104.50050, -5.98000, 1111645, 129.00000, -342.00000, 2074.00000, 1.50909, 0.06714, 0.03052, -103.90250, -5.23250, 1311685, 132.00000, -339.00000, 2076.00000, 1.50909, 0.12817, 0.03052, -104.35100, -9.11950, 1211725, 132.00000, -339.00000, 2078.00000, 1.50909, 0.12817, 0.09155, -104.50050, -5.23250, 1111765, 135.00000, -342.00000, 2077.00000, 1.57013, 0.12817, 0.09155, -104.50050, -6.27900, 1111805, 132.00000, -339.00000, 2073.00000, 1.44806, 0.06714, 0.03052, -104.50050, -6.27900, 1111854, 131.00000, -340.00000, 2074.00000, 1.38702, 0.12817, 0.09155, -105.24800, -6.72750, 1011894, 132.00000, -340.00000, 2073.00000, 1.50909, 0.12817, 0.09155, -105.24800, -6.72750, 1011934, 132.00000, -341.00000, 2072.00000, 1.57013, 0.00610, 0.03052, -104.50050, -5.23250, 1311974, 129.00000, -338.00000, 2076.00000, 1.50909, 0.06714, 0.03052, -104.79950, -4.93350, 1112014, 131.00000, -340.00000, 2076.00000, 1.44806, 0.12817, 0.03052, -104.20150, -6.72750, 1212054, 134.00000, -342.00000, 2076.00000, 1.38702, 0.12817, 0.03052, -104.20150, -6.72750, 12.70750

11315, 131.00000, -343.00000, 2074.00000, 1.38702, 0.00610, 0.09155, -105.69650, -6.12950, 1111355, 129.00000, -343.00000, 2073.00000, 1.44806, 0.12817, 0.03052, -105.69650, -6.72750, 1311395, 130.00000, -342.00000, 2075.00000, 1.38702, 0.06714, 0.09155, -103.60350, -4.63450, 1111435, 130.00000, -340.00000, 2073.00000, 1.44806, 0.12817, 0.03052, -104.50050, -5.98000, 1211475, 135.00000, -344.00000, 2076.00000, 1.44806, 0.12817, 0.09155, -104.50050, -5.98000, 1111515, 131.00000, -343.00000, 2074.00000, 1.38702, 0.12817, 0.03052, -104.50050, -5.98000, 1111555, 133.00000, -342.00000, 2071.00000, 1.44806, 0.18921, 0.09155, -104.50050, -5.98000, 1111605, 131.00000, -342.00000, 2071.00000, 1.38702, 0.06714, 0.03052, -104.50050, -5.98000, 1111645, 129.00000, -342.00000, 2074.00000, 1.50909, 0.06714, 0.03052, -103.90250, -5.23250, 1311685, 132.00000, -339.00000, 2076.00000, 1.50909, 0.12817, 0.03052, -104.35100, -9.11950, 1211725, 132.00000, -339.00000, 2078.00000, 1.50909, 0.12817, 0.09155, -104.50050, -5.23250, 1111765, 135.00000, -342.00000, 2077.00000, 1.57013, 0.12817, 0.09155, -104.50050, -6.27900, 1111805, 132.00000, -339.00000, 2073.00000, 1.44806, 0.06714, 0.03052, -104.50050, -6.27900, 1111854, 131.00000, -340.00000, 2074.00000, 1.38702, 0.12817, 0.09155, -105.24800, -6.72750, 1011894, 132.00000, -340.00000, 2073.00000, 1.50909, 0.12817, 0.09155, -105.24800, -6.72750, 1011934, 132.00000, -341.00000, 2072.00000, 1.57013, 0.00610, 0.03052, -104.50050, -5.23250, 1311974, 129.00000, -338.00000, 2076.00000, 1.50909, 0.06714, 0.03052, -104.79950, -4.93350, 1112014, 131.00000, -340.00000, 2076.00000, 1.44806, 0.12817, 0.03052, -104.20150, -6.72750, 1212054, 134.00000, -342.00000, 2076.00000, 1.38702, 0.12817, 0.03052, -104.20150, -6.72750, 12.70750

11355, 129.00000, -343.00000, 2073.00000, 1.44806, 0.12817, 0.03052, -105.69650, -6.72750, 1311395, 130.00000, -342.00000, 2075.00000, 1.38702, 0.06714, 0.09155, -103.60350, -4.63450, 1111435, 130.00000, -340.00000, 2073.00000, 1.44806, 0.12817, 0.03052, -104.50050, -5.98000, 1211475, 135.00000, -344.00000, 2076.00000, 1.44806, 0.12817, 0.09155, -104.50050, -5.98000, 1111515, 131.00000, -343.00000, 2074.00000, 1.38702, 0.12817, 0.03052, -104.50050, -5.98000, 1111555, 133.00000, -342.00000, 2071.00000, 1.44806, 0.18921, 0.09155, -104.50050, -5.98000, 1111605, 131.00000, -342.00000, 2071.00000, 1.38702, 0.06714, 0.03052, -104.50050, -5.98000, 1111645, 129.00000, -342.00000, 2074.00000, 1.50909, 0.06714, 0.03052, -103.90250, -5.23250, 1311685, 132.00000, -339.00000, 2076.00000, 1.50909, 0.12817, 0.03052, -104.35100, -9.11950, 1211725, 132.00000, -339.00000, 2078.00000, 1.50909, 0.12817, 0.09155, -104.50050, -5.23250, 1111765, 135.00000, -342.00000, 2077.00000, 1.57013, 0.12817, 0.09155, -104.50050, -6.27900, 1111805, 132.00000, -339.00000, 2073.00000, 1.44806, 0.06714, 0.03052, -104.50050, -6.27900, 1111854, 131.00000, -340.00000, 2074.00000, 1.38702, 0.12817, 0.09155, -105.24800, -6.72750, 1011894, 132.00000, -340.00000, 2073.00000, 1.50909, 0.12817, 0.09155, -105.24800, -6.72750, 1011934, 132.00000, -341.00000, 2072.00000, 1.57013, 0.00610, 0.03052, -104.50050, -5.23250, 1311974, 129.00000, -338.00000, 2076.00000, 1.50909, 0.06714, 0.03052, -104.79950, -4.93350, 1112014, 131.00000, -340.00000, 2076.00000, 1.44806, 0.12817, 0.03052, -104.20150, -6.72750, 1212054, 134.00000, -342.00000, 2076.00000, 1.38702, 0.12817, 0.03052, -104.20150, -6.72750, 12.70750

11395, 130.00000, -342.00000, 2075.00000, 1.38702, 0.06714, 0.09155, -103.60350, -4.63450, 1111435, 130.00000, -340.00000, 2073.00000, 1.44806, 0.12817, 0.03052, -104.50050, -5.98000, 1211475, 135.00000, -344.00000, 2076.00000, 1.44806, 0.12817, 0.09155, -104.50050, -5.98000, 1111515, 131.00000, -343.00000, 2074.00000, 1.38702, 0.12817, 0.03052, -104.50050, -5.98000, 1111555, 133.00000, -342.00000, 2071.00000, 1.44806, 0.18921, 0.09155, -104.50050, -5.98000, 1111605, 131.00000, -342.00000, 2071.00000, 1.38702, 0.06714, 0.03052, -104.50050, -5.98000, 1111645, 129.00000, -342.00000, 2074.00000, 1.50909, 0.06714, 0.03052, -103.90250, -5.23250, 1311685, 132.00000, -339.00000, 2076.00000, 1.50909, 0.12817, 0.03052, -104.35100, -9.11950, 1211725, 132.00000, -339.00000, 2078.00000, 1.50909, 0.12817, 0.09155, -104.50050, -5.23250, 1111765, 135.00000, -342.00000, 2077.00000, 1.57013, 0.12817, 0.09155, -104.50050, -6.27900, 1111805, 132.00000, -339.00000, 2073.00000, 1.44806, 0.06714, 0.03052, -104.50050, -6.27900, 1111854, 131.00000, -340.00000, 2074.00000, 1.38702, 0.12817, 0.09155, -105.24800, -6.72750, 1011894, 132.00000, -340.00000, 2073.00000, 1.50909, 0.12817, 0.09155, -105.24800, -6.72750, 1011934, 132.00000, -341.00000, 2072.00000, 1.57013, 0.00610, 0.03052, -104.50050, -5.23250, 1311974, 129.00000, -338.00000, 2076.00000, 1.50909, 0.06714, 0.03052, -104.79950, -4.93350, 1112014, 131.00000, -340.00000, 2076.00000, 1.44806, 0.12817, 0.03052, -104.20150, -6.72750, 1212054, 134.00000, -342.00000, 2076.00000, 1.38702, 0.12817, 0.03052, -104.20150, -6.72750, 12.70750

11435, 130.00000, -340.00000, 2073.00000, 1.44806, 0.12817, 0.03052, -104.50050, -5.98000, 1211475, 135.00000, -344.00000, 2076.00000, 1.44806, 0.12817, 0.09155, -104.50050, -5.98000, 1111515, 131.00000, -343.00000, 2074.00000, 1.38702, 0.12817, 0.03052, -104.50050, -5.98000, 1111555, 133.00000, -342.00000, 2071.00000, 1.44806, 0.18921, 0.09155, -104.50050, -5.98000, 1111605, 131.00000, -342.00000, 2071.00000, 1.38702, 0.06714, 0.03052, -104.50050, -5.98000, 1111645, 129.00000, -342.00000, 2074.00000, 1.50909, 0.06714, 0.03052, -103.90250, -5.23250, 1311685, 132.00000, -339.00000, 2076.00000, 1.50909, 0.12817, 0.03052, -104.35100, -9.11950, 1211725, 132.00000, -339.00000, 2078.00000, 1.50909, 0.12817, 0.09155, -104.50050, -5.23250, 1111765, 135.00000, -342.00000, 2077.00000, 1.57013, 0.12817, 0.09155, -104.50050, -6.27900, 1111805, 132.00000, -339.00000, 2073.00000, 1.44806, 0.06714, 0.03052, -104.50050, -6.27900, 1111854, 131.00000, -340.00000, 2074.00000, 1.38702, 0.12817, 0.09155, -105.24800, -6.72750, 1011894, 132.00000, -340.00000, 2073.00000, 1.50909, 0.12817, 0.09155, -105.24800, -6.72750, 1011934, 132.00000, -341.00000, 2072.00000, 1.57013, 0.00610, 0.03052, -104.50050, -5.23250, 1311974, 129.00000, -338.00000, 2076.00000, 1.50909, 0.06714, 0.03052, -104.79950, -4.93350, 1112014, 131.00000, -340.00000, 2076.00000, 1.44806, 0.12817, 0.03052, -104.20150, -6.72750, 1212054, 134.00000, -342.00000, 2076.00000, 1.38702, 0.12817, 0.03052, -104.20150, -6.72750, 12.70750

11475, 135.00000, -344.00000, 2076.00000, 1.44806, 0.12817, 0.09155, -104.50050, -5.98000, 1111515, 131.00000, -343.00000, 2074.00000, 1.38702, 0.12817, 0.03052, -104.50050, -5.98000, 1111555, 133.00000, -342.00000, 2071.00000, 1.44806, 0.18921, 0.09155, -104.50050, -5.98000, 1111605, 131.00000, -342.00000, 2071.00000, 1.38702, 0.06714, 0.03052, -104.50050, -5.98000, 1111645, 129.00000, -342.00000, 2074.00000, 1.50909, 0.06714, 0.03052, -103.90250, -5.23250, 1311685, 132.00000, -339.00000, 2076.00000, 1.50909, 0.12817, 0.03052, -104.35100, -9.11950, 1211725, 132.00000, -339.00000, 2078.00000, 1.50909, 0.12817, 0.09155, -104.50050, -5.23250, 1111765, 135.00000, -342.00000, 2077.00000, 1.57013, 0.12817, 0.09155, -104.50050, -6.27900, 1111805, 132.00000, -339.00000, 2073.00000, 1.44806, 0.06714, 0.03052, -104.50050, -6.27900, 1111854, 131.00000, -340.00000, 2074.00000, 1.38702, 0.12817, 0.09155, -105.24800, -6.72750, 1011894, 132.00000, -340.00000, 2073.00000, 1.50909, 0.12817, 0.09155, -105.24800, -6.72750, 1011934, 132.00000, -341.00000, 2072.00000, 1.57013, 0.00610, 0.03052, -104.50050, -5.23250, 1311974, 129.00000, -338.00000, 2076.00000, 1.50909, 0.06714, 0.03052, -104.79950, -4.93350, 1112014, 131.00000, -340.00000, 2076.00000, 1.44806, 0.12817, 0.03052, -104.20150, -6.72750, 1212054, 134.00000, -342.00000, 2076.00000, 1.38702, 0.12817, 0.03052, -104.20150, -6.72750, 12.70750

11515, 131.00000, -343.00000, 2074.00000, 1.38702, 0.12817, 0.03052, -104.50050, -5.98000, 1111555, 133.00000, -342.00000, 2071.00000, 1.44806, 0.18921, 0.09155, -104.50050, -5.98000, 1111605, 131.00000, -342.00000, 2071.00000, 1.38702, 0.06714, 0.03052, -104.50050, -5.98000, 1111645, 129.00000, -342.00000, 2074.00000, 1.50909, 0.06714, 0.03052, -103.90250, -5.23250, 1311685, 132.00000, -339.00000, 2076.00000, 1.50909, 0.12817, 0.03052, -104.35100, -9.11950, 1211725, 132.00000, -339.00000, 2078.00000, 1.50909, 0.12817, 0.09155, -104.50050, -5.23250, 1111765, 135.00000, -342.00000, 2077.00000, 1.57013, 0.12817, 0.09155, -104.50050, -6.27900, 1111805, 132.00000, -339.00000, 2073.00000, 1.44806, 0.06714, 0.03052, -104.50050, -6.27900, 1111854, 131.00000, -340.00000, 2074.00000, 1.38702, 0.12817, 0.09155, -105.24800, -6.72750, 1011894, 132.00000, -340.00000, 2073.00000, 1.50909, 0.12817, 0.09155, -105.24800, -6.72750, 1011934, 132.00000, -341.00000, 2072.00000, 1.57013, 0.00610, 0.03052, -104.50050, -5.23250, 1311974, 129.00000, -338.00000, 2076.00000, 1.50909, 0.06714, 0.03052, -104.79950, -4.93350, 1112014, 131.00000, -340.00000, 2076.00000, 1.44806, 0.12817, 0.03052, -104.20150, -6.72750, 1212054, 134.00000, -342.00000, 2076.00000, 1.38702, 0.12817, 0.03052, -104.20150, -6.72750, 12.70750

11555, 133.00000, -342.00000, 2071.00000, 1.44806, 0.18921, 0.09155, -104.50050, -5.98000, 1111605, 131.00000, -342.00000, 2071.00000, 1.38702, 0.06714, 0.03052, -104.50050, -5.98000, 1111645, 129.00000, -342.00000, 2074.00000, 1.50909, 0.06714, 0.03052, -103.90250, -5.23250, 1311685, 132.00000, -339.00000, 2076.00000, 1.50909, 0.12817, 0.03052, -104.35100, -9.11950, 1211725, 132.00000, -339.00000, 2078.00000, 1.50909, 0.12817, 0.09155, -104.50050, -5.23250, 1111765, 135.00000, -342.00000, 2077.00000, 1.57013, 0.12817, 0.09155, -104.50050, -6.27900, 1111805, 132.00000, -339.00000, 2073.00000, 1.44806, 0.06714, 0.03052, -104.50050, -6.27900, 1111854, 131.00000, -340.00000, 2074.00000, 1.38702, 0.12817, 0.09155, -105.24800, -6.72750, 1011894, 132.00000, -340.00000, 2073.00000, 1.50909, 0.12817, 0.09155, -105.24800, -6.72750, 1011934, 132.00000, -341.00000, 2072.00000, 1.57013, 0.00610, 0.03052, -104.50050, -5.23250, 1311974, 129.00000, -338.00000, 2076.00000, 1.50909, 0.06714, 0.03052, -104.79950, -4.93350, 1112014, 131.00000, -340.00000, 2076.00000, 1.44806, 0.12817, 0.03052, -104.20150, -6.72750, 1212054, 134.00000, -342.00000, 2076.00000, 1.38702, 0.12817, 0.03052, -104.20150, -6.72750, 12.70750

11605, 131.00000, -342.00000, 2071.00000, 1.38702, 0.06714, 0.03052, -104.50050, -5.98000, 1111645, 129.00000, -342.00000, 2074.00000, 1.50909, 0.06714, 0.03052, -103.90250, -5.23250, 1311685, 132.00000, -339.00000, 2076.00000, 1.50909, 0.12817, 0.03052, -104.35100, -9.11950, 1211725, 132.00000, -339.00000, 2078.00000, 1.50909, 0.12817, 0.09155, -104.50050, -5.23250, 1111765, 135.00000, -342.00000, 2077.00000, 1.57013, 0.12817, 0.09155, -104.50050, -6.27900, 1111805, 132.00000, -339.00000, 2073.00000, 1.44806, 0.06714, 0.03052, -104.50050, -6.27900, 1111854, 131.00000, -340.00000, 2074.00000, 1.38702, 0.12817, 0.09155, -105.24800, -6.72750, 1011894, 132.00000, -340.00000, 2073.00000, 1.50909, 0.12817, 0.09155, -105.24800, -6.72750, 1011934, 132.00000, -341.00000, 2072.00000, 1.57013, 0.00610, 0.03052, -104.50050, -5.23250, 1311974, 129.00000, -338.00000, 2076.00000, 1.50909, 0.06714, 0.03052, -104.79950, -4.93350, 1112014, 131.00000, -340.00000, 2076.00000, 1.44806, 0.12817, 0.03052, -104.20150, -6.72750, 1212054, 134.00000, -342.00000, 2076.00000, 1.38702, 0.12817, 0.03052, -104.20150, -6.72750, 12.70750

11645, 129.00000, -342.00000, 2074.00000, 1.50909, 0.06714, 0.03052, -103.90250, -5.23250, 1311685, 132.00000, -339.00000, 2076.00000, 1.50909, 0.12817, 0.03052, -104.35100, -9.11950, 1211725, 132.00000, -339.00000, 2078.00000, 1.50909, 0.12817, 0.09155, -104.50050, -5.23250, 1111765, 135.00000, -342.00000, 2077.00000, 1.57013, 0.12817, 0.09155, -104.50050, -6.27900, 1111805, 132.00000, -339.00000, 2073.00000, 1.44806, 0.06714, 0.03052, -104.50050, -6.27900, 1111854, 131.00000, -340.00000, 2074.00000, 1.38702, 0.12817, 0.09155, -105.24800, -6.72750, 1011894, 132.00000, -340.00000, 2073.00000, 1.50909, 0.12817, 0.09155, -105.24800, -6.72750, 1011934, 132.00000, -341.00000, 2072.00000, 1.57013, 0.00610, 0.03052, -104.50050, -5.23250, 1311974, 129.00000, -338.00000, 2076.00000, 1.50909, 0.06714, 0.03052, -104.79950, -4.93350, 1112014, 131.00000, -340.00000, 2076.00000, 1.44806, 0.12817, 0.03052, -104.20150, -6.72750, 1212054, 134.00000, -342.00000, 2076.00000, 1.38702, 0.12817, 0.03052, -104.20150, -6.72750, 12.70750

11685, 132.00000, -339.00000, 2076.00000, 1.50909, 0.12817, 0.03052, -104.35100, -9.11950, 1211725, 132.00000, -339.00000, 2078.00000, 1.50909, 0.12817, 0.09155, -104.50050, -5.23250, 1111765, 135.00000, -342.00000, 2077.00000, 1.57013, 0.12817, 0.09155, -104.50050, -6.27900, 1111805, 132.00000, -339.00000, 2073.00000, 1.44806, 0.06714, 0.03052, -104.50050, -6.27900, 1111854, 131.00000, -340.00000, 2074.00000, 1.38702, 0.12817, 0.09155, -105.24800, -6.72750, 1011894, 132.00000, -340.00000, 2073.00000, 1.50909, 0.12817, 0.09155, -105.24800, -6.72750, 1011934, 132.00000, -341.00000, 2072.00000, 1.57013, 0.00610, 0.03052, -104.50050, -5.23250, 1311974, 129.00000, -338.00000, 2076.00000, 1.50909, 0.06714, 0.03052, -104.79950, -4.93350, 1112014, 131.00000, -340.00000, 2076.00000, 1.44806, 0.12817, 0.03052, -104.20150, -6.72750, 1212054, 134.00000, -342.00000, 2076.00000, 1.38702, 0.12817, 0.03052, -104.20150, -6.72750, 12.70750

11725, 132.00000, -339.00000, 2078.00000, 1.50909, 0.12817, 0.09155, -104.50050, -5.23250, 1111765, 135.00000, -342.00000, 2077.00000, 1.57013, 0.12817, 0.09155, -104.50050, -6.27900, 1111805, 132.00000, -339.00000, 2073.00000, 1.44806, 0.06714, 0.03052, -104.50050, -6.27900, 1111854, 131.00000, -340.00000, 2074.00000, 1.38702, 0.12817, 0.09155, -105.24800, -6.72750, 1011894, 132.00000, -340.00000, 2073.00000, 1.50909, 0.12817, 0.09155, -105.24800, -6.72750, 1011934, 132.00000, -341.00000, 2072.00000, 1.57013, 0.00610, 0.03052, -104.50050, -5.23250, 1311974, 129.00000, -338.00000, 2076.00000, 1.50909, 0.06714, 0.03052, -104.79950, -4.93350, 1112014, 131.00000, -340.00000, 2076.00000, 1.44806, 0.12817, 0.03052, -104.20150, -6.72750, 1212054, 134.00000, -342.00000, 2076.00000, 1.38702, 0.12817, 0.03052, -104.20150, -6.72750, 12.70750

11765, 135.00000, -342.00000, 2077.00000, 1.57013, 0.12817, 0.09155, -104.50050, -6.27900, 1111805, 132.00000, -339.00000, 2073.00000, 1.44806, 0.06714, 0.03052, -104.50050, -6.27900, 1111854, 131.00000, -340.00000, 2074.00000, 1.38702, 0.12817, 0.09155, -105.24800, -6.72750, 1011894, 132.00000, -340.00000, 2073.00000, 1.50909, 0.12817, 0.09155, -105.24800, -6.72750, 1011934, 132.00000, -341.00000, 2072.00000, 1.57013, 0.00610, 0.03052, -104.50050, -5.23250, 1311974, 129.00000, -338.00000, 2076.00000, 1.50909, 0.06714, 0.03052, -104.79950, -4.93350, 1112014, 131.00000, -340.00000, 2076.00000, 1.44806, 0.12817, 0.03052, -104.20150, -6.72750, 1212054, 134.00000, -342.00000, 2076.00000, 1.38702, 0.12817, 0.03052, -104.20150, -6.72750, 12.70750

11805, 132.00000, -339.00000, 2073.00000, 1.44806, 0.06714, 0.03052, -104.50050, -6.27900, 1111854, 131.00000, -340.00000, 2074.00000, 1.38702, 0.12817, 0.09155, -105.24800, -6.72750, 1011894, 132.00000, -340.00000, 2073.00000, 1.50909, 0.12817, 0.09155, -105.24800, -6.72750, 1011934, 132.00000, -341.00000, 2072.00000, 1.57013, 0.00610, 0.03052, -104.50050, -5.23250, 1311974, 129.00000, -338.00000, 2076.00000, 1.50909, 0.06714, 0.03052, -104.79950, -4.93350, 1112014, 131.00000, -340.00000, 2076.00000, 1.44806, 0.12817, 0.03052, -104.20150, -6.72750, 1212054, 134.00000, -342.00000, 2076.00000, 1.38702, 0.12817, 0.03052, -104.20150, -6.72750, 12.70750

11854, 131.00000, -340.00000, 2074.00000, 1.38702, 0.12817, 0.09155, -105.24800, -6.72750, 1011894, 132.00000, -340.00000, 2073.00000, 1.50909, 0.12817, 0.09155, -105.24800, -6.72750, 1011934, 132.00000, -341.00000, 2072.00000, 1.57013, 0.00610, 0.03052, -104.50050, -5.23250, 1311974, 129.00000, -338.00000, 2076.00000, 1.50909, 0.06714, 0.03052, -104.79950, -4.93350, 1112014, 131.00000, -340.00000, 2076.00000, 1.44806, 0.12817, 0.03052, -104.20150, -6.72750, 1212054, 134.00000, -342.00000, 2076.00000, 1.38702, 0.12817, 0.03052, -104.20150, -6.72750, 12.70750

11894, 132.00000, -340.00000, 2073.00000, 1.50909, 0.12817, 0.09155, -105.24800, -6.72750, 1011934, 132.00000, -341.00000, 2072.00000, 1.57013, 0.00610, 0.03052, -104.50050, -5.23250, 1311974, 129.00000, -338.00000, 2076.00000, 1.50909, 0.06714, 0.03052, -104.79950, -4.93350, 1112014, 131.00000, -340.00000, 2076.00000, 1.44806, 0.12817, 0.03052, -104.20150, -6.72750, 1212054, 134.00000, -342.00000, 2076.00000, 1.38702, 0.12817, 0.03052, -104.20150, -6.72750, 12.70750

11934, 132.00000, -341.00000, 2072.00000, 1.57013, 0.00610, 0.03052, -104.50050, -5.23250, 1311974, 129.00000, -338.00000, 2076.00000, 1.50909, 0.06714, 0.03052, -104.79950, -4.93350, 1112014, 131.00000, -340.00000, 2076.00000, 1.44806, 0.12817, 0.03052, -104.20150, -6.72750, 1212054, 134.00000, -342.00000, 2076.00000, 1.38702, 0.12817, 0.03052, -104.20150, -6.72750, 12.70750

11974, 129.00000, -338.00000, 2076.00000, 1.50909, 0.06714, 0.03052, -104.79950, -4.93350, 1112014, 131.00000, -340.00000, 2076.00000, 1.44806, 0.12817, 0.03052, -104.20150, -6.72750, 1212054, 134.00000, -342.00000, 2076.00000, 1.38702, 0.12817, 0.03052, -104.20150, -6.72750, 12.70750

12014, 131.00000, -340.00000, 2076.00000, 1.44806, 0.12817, 0.03052, -104.20150, -6.72750, 1212054, 134.00000, -342.00000, 2076.00000, 1.38702, 0.12817, 0.03052, -104.20150, -6.72750, 12.70750

12054, 134.00000, -342.00000, 2076.00000, 1.38702, 0.12817, 0.03052, -104.20150, -6.72750, 12.70750

12164, 130.00000, -339.00000, 2074.00000, 1.44806, 0.12817, -0.03052, -103.30450, -5.38200, 112204, 132.00000, -340.00000, 2074.00000, 1.44806, 0.12817, 0.03052, -104.79950, -6.42850, 1312244, 133.00000, -339.00000, 2074.00000, 1.50909, 0.18921, 0.03052, -104.79950, -6.42850, 1312284, 134.00000, -338.00000, 2075.00000, 1.38702, 0.06714, 0.03052, -104.94900, -7.02650, 1212324, 134.00000, -337.00000, 2075.00000, 1.38702, 0.06714, 0.03052, -105.39750, -6.87700, 1212364, 132.00000, -339.00000, 2077.00000, 1.50909, 0.12817, -0.03052, -103.45399, -6.72750, 112404, 134.00000, -338.00000, 2078.00000, 1.44806, 0.06714, -0.03052, -104.50050, -6.72750, 112444, 136.00000, -341.00000, 2071.00000, 1.44806, 0.06714, 0.03052, -104.50050, -6.72750, 1112484, 130.00000, -341.00000, 2074.00000, 1.44806, 0.18921, 0.09155, -102.70650, -4.78400, 1412524, 133.00000, -336.00000, 2075.00000, 1.50909, 0.12817, 0.09155, -102.70650, -4.78400, 1412564, 130.00000, -343.00000, 2075.00000, 1.44806, 0.06714, 0.03052, -102.70650, -5.23250, 1312604, 135.00000, -342.00000, 2077.00000, 1.44806, 0.06714, 0.03052, -103.90250, -5.23250, 1312644, 132.00000, -341.00000, 2075.00000, 1.44806, 0.12817, 0.09155, -103.90250, -5.23250, 1312693, 134.00000, -339.00000, 2072.00000, 1.38702, 0.12817, 0.03052, -103.90250, -5.53150, 1112733, 133.00000, -340.00000, 2073.00000, 1.44806, 0.06714, -0.03052, -101.36100, -4.03650, 112773, 132.00000, -342.00000, 2072.00000, 1.44806, 0.12817, -0.03052, -104.79950, -7.62450, 112813, 136.00000, -341.00000, 2074.00000, 1.50909, 0.06714, 0.03052, -104.79950, -7.62450, 1212853, 128.00000, -340.00000, 2073.00000, 1.44806, 0.06714, 0.03052, -105.39750, -5.68100, 1312893, 129.00000, -341.00000, 2073.00000, 1.50909, 0.06714, 0.03052, -105.39750, -5.68100, 1312943, 132.00000, -341.00000, 2072.00000, 1.44806, 0.12817, 0.03052, -103.60350, -4.93350, 1112983, 131.00000, -342.00000, 2072.00000, 1.50909, 0.06714, 0.03052, -101.80950, -0.89700, 1113023, 129.00000, -342.00000, 2075.00000, 1.44806, 0.00610, 0.03052, -104.79950, -6.87700, 1213063, 130.00000, -341.00000, 2075.00000, 1.44806, 0.12817, 0.03052, -104.50050, -4.78400, 1313103, 131.00000, -340.00000, 2076.00000, 1.44806, 0.12817, 0.03052, -104.05200, -7.17600, 1213143, 132.00000, -339.00000, 2073.00000, 1.38702, 0.12817, 0.09155, -104.05200, -7.17600, 12.85700

12204, 132.00000, -340.00000, 2074.00000, 1.44806, 0.12817, 0.03052, -104.79950, -6.42850, 1312244, 133.00000, -339.00000, 2074.00000, 1.50909, 0.18921, 0.03052, -104.79950, -6.42850, 1312284, 134.00000, -338.00000, 2075.00000, 1.38702, 0.06714, 0.03052, -104.94900, -7.02650, 1212324, 134.00000, -337.00000, 2075.00000, 1.38702, 0.06714, 0.03052, -105.39750, -6.87700, 1212364, 132.00000, -339.00000, 2077.00000, 1.50909, 0.12817, -0.03052, -103.45399, -6.72750, 112404, 134.00000, -338.00000, 2078.00000, 1.44806, 0.06714, -0.03052, -104.50050, -6.72750, 112444, 136.00000, -341.00000, 2071.00000, 1.44806, 0.06714, 0.03052, -104.50050, -6.72750, 1112484, 130.00000, -341.00000, 2074.00000, 1.44806, 0.18921, 0.09155, -102.70650, -4.78400, 1412524, 133.00000, -336.00000, 2075.00000, 1.50909, 0.12817, 0.09155, -102.70650, -4.78400, 1412564, 130.00000, -343.00000, 2075.00000, 1.44806, 0.06714, 0.03052, -102.70650, -5.23250, 1312604, 135.00000, -342.00000, 2077.00000, 1.44806, 0.06714, 0.03052, -103.90250, -5.23250, 1312644, 132.00000, -341.00000, 2075.00000, 1.44806, 0.12817, 0.09155, -103.90250, -5.23250, 1312693, 134.00000, -339.00000, 2072.00000, 1.38702, 0.12817, 0.03052, -103.90250, -5.53150, 1112733, 133.00000, -340.00000, 2073.00000, 1.44806, 0.06714, -0.03052, -101.36100, -4.03650, 112773, 132.00000, -342.00000, 2072.00000, 1.44806, 0.12817, -0.03052, -104.79950, -7.62450, 112813, 136.00000, -341.00000, 2074.00000, 1.50909, 0.06714, 0.03052, -104.79950, -7.62450, 1212853, 128.00000, -340.00000, 2073.00000, 1.44806, 0.06714, 0.03052, -105.39750, -5.68100, 1312893, 129.00000, -341.00000, 2073.00000, 1.50909, 0.06714, 0.03052, -105.39750, -5.68100, 1312943, 132.00000, -341.00000, 2072.00000, 1.44806, 0.12817, 0.03052, -103.60350, -4.93350, 1112983, 131.00000, -342.00000, 2072.00000, 1.50909, 0.06714, 0.03052, -101.80950, -0.89700, 1113023, 129.00000, -342.00000, 2075.00000, 1.44806, 0.00610, 0.03052, -104.79950, -6.87700, 1213063, 130.00000, -341.00000, 2075.00000, 1.44806, 0.12817, 0.03052, -104.50050, -4.78400, 1313103, 131.00000, -340.00000, 2076.00000, 1.44806, 0.12817, 0.03052, -104.05200, -7.17600, 1213143, 132.00000, -339.00000, 2073.00000, 1.38702, 0.12817, 0.09155, -104.05200, -7.17600, 12.85700

12244, 133.00000, -339.00000, 2074.00000, 1.50909, 0.18921, 0.03052, -104.79950, -6.42850, 1312284, 134.00000, -338.00000, 2075.00000, 1.38702, 0.06714, 0.03052, -104.94900, -7.02650, 1212324, 134.00000, -337.00000, 2075.00000, 1.38702, 0.06714, 0.03052, -105.39750, -6.87700, 1212364, 132.00000, -339.00000, 2077.00000, 1.50909, 0.12817, -0.03052, -103.45399, -6.72750, 112404, 134.00000, -338.00000, 2078.00000, 1.44806, 0.06714, -0.03052, -104.50050, -6.72750, 112444, 136.00000, -341.00000, 2071.00000, 1.44806, 0.06714, 0.03052, -104.50050, -6.72750, 1112484, 130.00000, -341.00000, 2074.00000, 1.44806, 0.18921, 0.09155, -102.70650, -4.78400, 1412524, 133.00000, -336.00000, 2075.00000, 1.50909, 0.12817, 0.09155, -102.70650, -4.78400, 1412564, 130.00000, -343.00000, 2075.00000, 1.44806, 0.06714, 0.03052, -102.70650, -5.23250, 1312604, 135.00000, -342.00000, 2077.00000, 1.44806, 0.06714, 0.03052, -103.90250, -5.23250, 1312644, 132.00000, -341.00000, 2075.00000, 1.44806, 0.12817, 0.09155, -103.90250, -5.23250, 1312693, 134.00000, -339.00000, 2072.00000, 1.38702, 0.12817, 0.03052, -103.90250, -5.53150, 1112733, 133.00000, -340.00000, 2073.00000, 1.44806, 0.06714, -0.03052, -101.36100, -4.03650, 112773, 132.00000, -342.00000, 2072.00000, 1.44806, 0.12817, -0.03052, -104.79950, -7.62450, 112813, 136.00000, -341.00000, 2074.00000, 1.50909, 0.06714, 0.03052, -104.79950, -7.62450, 1212853, 128.00000, -340.00000, 2073.00000, 1.44806, 0.06714, 0.03052, -105.39750, -5.68100, 1312893, 129.00000, -341.00000, 2073.00000, 1.50909, 0.06714, 0.03052, -105.39750, -5.68100, 1312943, 132.00000, -341.00000, 2072.00000, 1.44806, 0.12817, 0.03052, -103.60350, -4.93350, 1112983, 131.00000, -342.00000, 2072.00000, 1.50909, 0.06714, 0.03052, -101.80950, -0.89700, 1113023, 129.00000, -342.00000, 2075.00000, 1.44806, 0.00610, 0.03052, -104.79950, -6.87700, 1213063, 130.00000, -341.00000, 2075.00000, 1.44806, 0.12817, 0.03052, -104.50050, -4.78400, 1313103, 131.00000, -340.00000, 2076.00000, 1.44806, 0.12817, 0.03052, -104.05200, -7.17600, 1213143, 132.00000, -339.00000, 2073.00000, 1.38702, 0.12817, 0.09155, -104.05200, -7.17600, 12.85700

12284, 134.00000, -338.00000, 2075.00000, 1.38702, 0.06714, 0.03052, -104.94900, -7.02650, 1212324, 134.00000, -337.00000, 2075.00000, 1.38702, 0.06714, 0.03052, -105.39750, -6.87700, 1212364, 132.00000, -339.00000, 2077.00000, 1.50909, 0.12817, -0.03052, -103.45399, -6.72750, 112404, 134.00000, -338.00000, 2078.00000, 1.44806, 0.06714, -0.03052, -104.50050, -6.72750, 112444, 136.00000, -341.00000, 2071.00000, 1.44806, 0.06714, 0.03052, -104.50050, -6.72750, 1112484, 130.00000, -341.00000, 2074.00000, 1.44806, 0.18921, 0.09155, -102.70650, -4.78400, 1412524, 133.00000, -336.00000, 2075.00000, 1.50909, 0.12817, 0.09155, -102.70650, -4.78400, 1412564, 130.00000, -343.00000, 2075.00000, 1.44806, 0.06714, 0.03052, -102.70650, -5.23250, 1312604, 135.00000, -342.00000, 2077.00000, 1.44806, 0.06714, 0.03052, -103.90250, -5.23250, 1312644, 132.00000, -341.00000, 2075.00000, 1.44806, 0.12817, 0.09155, -103.90250, -5.23250, 1312693, 134.00000, -339.00000, 2072.00000, 1.38702, 0.12817, 0.03052, -103.90250, -5.53150, 1112733, 133.00000, -340.00000, 2073.00000, 1.44806, 0.06714, -0.03052, -101.36100, -4.03650, 112773, 132.00000, -342.00000, 2072.00000, 1.44806, 0.12817, -0.03052, -104.79950, -7.62450, 112813, 136.00000, -341.00000, 2074.00000, 1.50909, 0.06714, 0.03052, -104.79950, -7.62450, 1212853, 128.00000, -340.00000, 2073.00000, 1.44806, 0.06714, 0.03052, -105.39750, -5.68100, 1312893, 129.00000, -341.00000, 2073.00000, 1.50909, 0.06714, 0.03052, -105.39750, -5.68100, 1312943, 132.00000, -341.00000, 2072.00000, 1.44806, 0.12817, 0.03052, -103.60350, -4.93350, 1112983, 131.00000, -342.00000, 2072.00000, 1.50909, 0.06714, 0.03052, -101.80950, -0.89700, 1113023, 129.00000, -342.00000, 2075.00000, 1.44806, 0.00610, 0.03052, -104.79950, -6.87700, 1213063, 130.00000, -341.00000, 2075.00000, 1.44806, 0.12817, 0.03052, -104.50050, -4.78400, 1313103, 131.00000, -340.00000, 2076.00000, 1.44806, 0.12817, 0.03052, -104.05200, -7.17600, 1213143, 132.00000, -339.00000, 2073.00000, 1.38702, 0.12817, 0.09155, -104.05200, -7.17600, 12.85700

12324, 134.00000, -337.00000, 2075.00000, 1.38702, 0.06714, 0.03052, -105.39750, -6.87700, 1212364, 132.00000, -339.00000, 2077.00000, 1.50909, 0.12817, -0.03052, -103.45399, -6.72750, 112404, 134.00000, -338.00000, 2078.00000, 1.44806, 0.06714, -0.03052, -104.50050, -6.72750, 112444, 136.00000, -341.00000, 2071.00000, 1.44806, 0.06714, 0.03052, -104.50050, -6.72750, 1112484, 130.00000, -341.00000, 2074.00000, 1.44806, 0.18921, 0.09155, -102.70650, -4.78400, 1412524, 133.00000, -336.00000, 2075.00000, 1.50909, 0.12817, 0.09155, -102.70650, -4.78400, 1412564, 130.00000, -343.00000, 2075.00000, 1.44806, 0.06714, 0.03052, -102.70650, -5.23250, 1312604, 135.00000, -342.00000, 2077.00000, 1.44806, 0.06714, 0.03052, -103.90250, -5.23250, 1312644, 132.00000, -341.00000, 2075.00000, 1.44806, 0.12817, 0.09155, -103.90250, -5.23250, 1312693, 134.00000, -339.00000, 2072.00000, 1.38702, 0.12817, 0.03052, -103.90250, -5.53150, 1112733, 133.00000, -340.00000, 2073.00000, 1.44806, 0.06714, -0.03052, -101.36100, -4.03650, 112773, 132.00000, -342.00000, 2072.00000, 1.44806, 0.12817, -0.03052, -104.79950, -7.62450, 112813, 136.00000, -341.00000, 2074.00000, 1.50909, 0.06714, 0.03052, -104.79950, -7.62450, 1212853, 128.00000, -340.00000, 2073.00000, 1.44806, 0.06714, 0.03052, -105.39750, -5.68100, 1312893, 129.00000, -341.00000, 2073.00000, 1.50909, 0.06714, 0.03052, -105.39750, -5.68100, 1312943, 132.00000, -341.00000, 2072.00000, 1.44806, 0.12817, 0.03052, -103.60350, -4.93350, 1112983, 131.00000, -342.00000, 2072.00000, 1.50909, 0.06714, 0.03052, -101.80950, -0.89700, 1113023, 129.00000, -342.00000, 2075.00000, 1.44806, 0.00610, 0.03052, -104.79950, -6.87700, 1213063, 130.00000, -341.00000, 2075.00000, 1.44806, 0.12817, 0.03052, -104.50050, -4.78400, 1313103, 131.00000, -340.00000, 2076.00000, 1.44806, 0.12817, 0.03052, -104.05200, -7.17600, 1213143, 132.00000, -339.00000, 2073.00000, 1.38702, 0.12817, 0.09155, -104.05200, -7.17600, 12.85700

12364, 132.00000, -339.00000, 2077.00000, 1.50909, 0.12817, -0.03052, -103.45399, -6.72750, 112404, 134.00000, -338.00000, 2078.00000, 1.44806, 0.06714, -0.03052, -104.50050, -6.72750, 112444, 136.00000, -341.00000, 2071.00000, 1.44806, 0.06714, 0.03052, -104.50050, -6.72750, 1112484, 130.00000, -341.00000, 2074.00000, 1.44806, 0.18921, 0.09155, -102.70650, -4.78400, 1412524, 133.00000, -336.00000, 2075.00000, 1.50909, 0.12817, 0.09155, -102.70650, -4.78400, 1412564, 130.00000, -343.00000, 2075.00000, 1.44806, 0.06714, 0.03052, -102.70650, -5.23250, 1312604, 135.00000, -342.00000, 2077.00000, 1.44806, 0.06714, 0.03052, -103.90250, -5.23250, 1312644, 132.00000, -341.00000, 2075.00000, 1.44806, 0.12817, 0.09155, -103.90250, -5.23250, 1312693, 134.00000, -339.00000, 2072.00000, 1.38702, 0.12817, 0.03052, -103.90250, -5.53150, 1112733, 133.00000, -340.00000, 2073.00000, 1.44806, 0.06714, -0.03052, -101.36100, -4.03650, 112773, 132.00000, -342.00000, 2072.00000, 1.44806, 0.12817, -0.03052, -104.79950, -7.62450, 112813, 136.00000, -341.00000, 2074.00000, 1.50909, 0.06714, 0.03052, -104.79950, -7.62450, 1212853, 128.00000, -340.00000, 2073.00000, 1.44806, 0.06714, 0.03052, -105.39750, -5.68100, 1312893, 129.00000, -341.00000, 2073.00000, 1.50909, 0.06714, 0.03052, -105.39750, -5.68100, 1312943, 132.00000, -341.00000, 2072.00000, 1.44806, 0.12817, 0.03052, -103.60350, -4.93350, 1112983, 131.00000, -342.00000, 2072.00000, 1.50909, 0.06714, 0.03052, -101.80950, -0.89700, 1113023, 129.00000, -342.00000, 2075.00000, 1.44806, 0.00610, 0.03052, -104.79950, -6.87700, 1213063, 130.00000, -341.00000, 2075.00000, 1.44806, 0.12817, 0.03052, -104.50050, -4.78400, 1313103, 131.00000, -340.00000, 2076.00000, 1.44806, 0.12817, 0.03052, -104.05200, -7.17600, 1213143, 132.00000, -339.00000, 2073.00000, 1.38702, 0.12817, 0.09155, -104.05200, -7.17600, 12.85700

12404, 134.00000, -338.00000, 2078.00000, 1.44806, 0.06714, -0.03052, -104.50050, -6.72750, 112444, 136.00000, -341.00000, 2071.00000, 1.44806, 0.06714, 0.03052, -104.50050, -6.72750, 1112484, 130.00000, -341.00000, 2074.00000, 1.44806, 0.18921, 0.09155, -102.70650, -4.78400, 1412524, 133.00000, -336.00000, 2075.00000, 1.50909, 0.12817, 0.09155, -102.70650, -4.78400, 1412564, 130.00000, -343.00000, 2075.00000, 1.44806, 0.06714, 0.03052, -102.70650, -5.23250, 1312604, 135.00000, -342.00000, 2077.00000, 1.44806, 0.06714, 0.03052, -103.90250, -5.23250, 1312644, 132.00000, -341.00000, 2075.00000, 1.44806, 0.12817, 0.09155, -103.90250, -5.23250, 1312693, 134.00000, -339.00000, 2072.00000, 1.38702, 0.12817, 0.03052, -103.90250, -5.53150, 1112733, 133.00000, -340.00000, 2073.00000, 1.44806, 0.06714, -0.03052, -101.36100, -4.03650, 112773, 132.00000, -342.00000, 2072.00000, 1.44806, 0.12817, -0.03052, -104.79950, -7.62450, 112813, 136.00000, -341.00000, 2074.00000, 1.50909, 0.06714, 0.03052, -104.79950, -7.62450, 1212853, 128.00000, -340.00000, 2073.00000, 1.44806, 0.06714, 0.03052, -105.39750, -5.68100, 1312893, 129.00000, -341.00000, 2073.00000, 1.50909, 0.06714, 0.03052, -105.39750, -5.68100, 1312943, 132.00000, -341.00000, 2072.00000, 1.44806, 0.12817, 0.03052, -103.60350, -4.93350, 1112983, 131.00000, -342.00000, 2072.00000, 1.50909, 0.06714, 0.03052, -101.80950, -0.89700, 1113023, 129.00000, -342.00000, 2075.00000, 1.44806, 0.00610, 0.03052, -104.79950, -6.87700, 1213063, 130.00000, -341.00000, 2075.00000, 1.44806, 0.12817, 0.03052, -104.50050, -4.78400, 1313103, 131.00000, -340.00000, 2076.00000, 1.44806, 0.12817, 0.03052, -104.05200, -7.17600, 1213143, 132.00000, -339.00000, 2073.00000, 1.38702, 0.12817, 0.09155, -104.05200, -7.17600, 12.85700

12444, 136.00000, -341.00000, 2071.00000, 1.44806, 0.06714, 0.03052, -104.50050, -6.72750, 1112484, 130.00000, -341.00000, 2074.00000, 1.44806, 0.18921, 0.09155, -102.70650, -4.78400, 1412524, 133.00000, -336.00000, 2075.00000, 1.50909, 0.12817, 0.09155, -102.70650, -4.78400, 1412564, 130.00000, -343.00000, 2075.00000, 1.44806, 0.06714, 0.03052, -102.70650, -5.23250, 1312604, 135.00000, -342.00000, 2077.00000, 1.44806, 0.06714, 0.03052, -103.90250, -5.23250, 1312644, 132.00000, -341.00000, 2075.00000, 1.44806, 0.12817, 0.09155, -103.90250, -5.23250, 1312693, 134.00000, -339.00000, 2072.00000, 1.38702, 0.12817, 0.03052, -103.90250, -5.53150, 1112733, 133.00000, -340.00000, 2073.00000, 1.44806, 0.06714, -0.03052, -101.36100, -4.03650, 112773, 132.00000, -342.00000, 2072.00000, 1.44806, 0.12817, -0.03052, -104.79950, -7.62450, 112813, 136.00000, -341.00000, 2074.00000, 1.50909, 0.06714, 0.03052, -104.79950, -7.62450, 1212853, 128.00000, -340.00000, 2073.00000, 1.44806, 0.06714, 0.03052, -105.39750, -5.68100, 1312893, 129.00000, -341.00000, 2073.00000, 1.50909, 0.06714, 0.03052, -105.39750, -5.68100, 1312943, 132.00000, -341.00000, 2072.00000, 1.44806, 0.12817, 0.03052, -103.60350, -4.93350, 1112983, 131.00000, -342.00000, 2072.00000, 1.50909, 0.06714, 0.03052, -101.80950, -0.89700, 1113023, 129.00000, -342.00000, 2075.00000, 1.44806, 0.00610, 0.03052, -104.79950, -6.87700, 1213063, 130.00000, -341.00000, 2075.00000, 1.44806, 0.12817, 0.03052, -104.50050, -4.78400, 1313103, 131.00000, -340.00000, 2076.00000, 1.44806, 0.12817, 0.03052, -104.05200, -7.17600, 1213143, 132.00000, -339.00000, 2073.00000, 1.38702, 0.12817, 0.09155, -104.05200, -7.17600, 12.85700

12484, 130.00000, -341.00000, 2074.00000, 1.44806, 0.18921, 0.09155, -102.70650, -4.78400, 1412524, 133.00000, -336.00000, 2075.00000, 1.50909, 0.12817, 0.09155, -102.70650, -4.78400, 1412564, 130.00000, -343.00000, 2075.00000, 1.44806, 0.06714, 0.03052, -102.70650, -5.23250, 1312604, 135.00000, -342.00000, 2077.00000, 1.44806, 0.06714, 0.03052, -103.90250, -5.23250, 1312644, 132.00000, -341.00000, 2075.00000, 1.44806, 0.12817, 0.09155, -103.90250, -5.23250, 1312693, 134.00000, -339.00000, 2072.00000, 1.38702, 0.12817, 0.03052, -103.90250, -5.53150, 1112733, 133.00000, -340.00000, 2073.00000, 1.44806, 0.06714, -0.03052, -101.36100, -4.03650, 112773, 132.00000, -342.00000, 2072.00000, 1.44806, 0.12817, -0.03052, -104.79950, -7.62450, 112813, 136.00000, -341.00000, 2074.00000, 1.50909, 0.06714, 0.03052, -104.79950, -7.62450, 1212853, 128.00000, -340.00000, 2073.00000, 1.44806, 0.06714, 0.03052, -105.39750, -5.68100, 1312893, 129.00000, -341.00000, 2073.00000, 1.50909, 0.06714, 0.03052, -105.39750, -5.68100, 1312943, 132.00000, -341.00000, 2072.00000, 1.44806, 0.12817, 0.03052, -103.60350, -4.93350, 1112983, 131.00000, -342.00000, 2072.00000, 1.50909, 0.06714, 0.03052, -101.80950, -0.89700, 1113023, 129.00000, -342.00000, 2075.00000, 1.44806, 0.00610, 0.03052, -104.79950, -6.87700, 1213063, 130.00000, -341.00000, 2075.00000, 1.44806, 0.12817, 0.03052, -104.50050, -4.78400, 1313103, 131.00000, -340.00000, 2076.00000, 1.44806, 0.12817, 0.03052, -104.05200, -7.17600, 1213143, 132.00000, -339.00000, 2073.00000, 1.38702, 0.12817, 0.09155, -104.05200, -7.17600, 12.85700

12524, 133.00000, -336.00000, 2075.00000, 1.50909, 0.12817, 0.09155, -102.70650, -4.78400, 1412564, 130.00000, -343.00000, 2075.00000, 1.44806, 0.06714, 0.03052, -102.70650, -5.23250, 1312604, 135.00000, -342.00000, 2077.00000, 1.44806, 0.06714, 0.03052, -103.90250, -5.23250, 1312644, 132.00000, -341.00000, 2075.00000, 1.44806, 0.12817, 0.09155, -103.90250, -5.23250, 1312693, 134.00000, -339.00000, 2072.00000, 1.38702, 0.12817, 0.03052, -103.90250, -5.53150, 1112733, 133.00000, -340.00000, 2073.00000, 1.44806, 0.06714, -0.03052, -101.36100, -4.03650, 112773, 132.00000, -342.00000, 2072.00000, 1.44806, 0.12817, -0.03052, -104.79950, -7.62450, 112813, 136.00000, -341.00000, 2074.00000, 1.50909, 0.06714, 0.03052, -104.79950, -7.62450, 1212853, 128.00000, -340.00000, 2073.00000, 1.44806, 0.06714, 0.03052, -105.39750, -5.68100, 1312893, 129.00000, -341.00000, 2073.00000, 1.50909, 0.06714, 0.03052, -105.39750, -5.68100, 1312943, 132.00000, -341.00000, 2072.00000, 1.44806, 0.12817, 0.03052, -103.60350, -4.93350, 1112983, 131.00000, -342.00000, 2072.00000, 1.50909, 0.06714, 0.03052, -101.80950, -0.89700, 1113023, 129.00000, -342.00000, 2075.00000, 1.44806, 0.00610, 0.03052, -104.79950, -6.87700, 1213063, 130.00000, -341.00000, 2075.00000, 1.44806, 0.12817, 0.03052, -104.50050, -4.78400, 1313103, 131.00000, -340.00000, 2076.00000, 1.44806, 0.12817, 0.03052, -104.05200, -7.17600, 1213143, 132.00000, -339.00000, 2073.00000, 1.38702, 0.12817, 0.09155, -104.05200, -7.17600, 12.85700

12564, 130.00000, -343.00000, 2075.00000, 1.44806, 0.06714, 0.03052, -102.70650, -5.23250, 1312604, 135.00000, -342.00000, 2077.00000, 1.44806, 0.06714, 0.03052, -103.90250, -5.23250, 1312644, 132.00000, -341.00000, 2075.00000, 1.44806, 0.12817, 0.09155, -103.90250, -5.23250, 1312693, 134.00000, -339.00000, 2072.00000, 1.38702, 0.12817, 0.03052, -103.90250, -5.53150, 1112733, 133.00000, -340.00000, 2073.00000, 1.44806, 0.06714, -0.03052, -101.36100, -4.03650, 112773, 132.00000, -342.00000, 2072.00000, 1.44806, 0.12817, -0.03052, -104.79950, -7.62450, 112813, 136.00000, -341.00000, 2074.00000, 1.50909, 0.06714, 0.03052, -104.79950, -7.62450, 1212853, 128.00000, -340.00000, 2073.00000, 1.44806, 0.06714, 0.03052, -105.39750, -5.68100, 1312893, 129.00000, -341.00000, 2073.00000, 1.50909, 0.06714, 0.03052, -105.39750, -5.68100, 1312943, 132.00000, -341.00000, 2072.00000, 1.44806, 0.12817, 0.03052, -103.60350, -4.93350, 1112983, 131.00000, -342.00000, 2072.00000, 1.50909, 0.06714, 0.03052, -101.80950, -0.89700, 1113023, 129.00000, -342.00000, 2075.00000, 1.44806, 0.00610, 0.03052, -104.79950, -6.87700, 1213063, 130.00000, -341.00000, 2075.00000, 1.44806, 0.12817, 0.03052, -104.50050, -4.78400, 1313103, 131.00000, -340.00000, 2076.00000, 1.44806, 0.12817, 0.03052, -104.05200, -7.17600, 1213143, 132.00000, -339.00000, 2073.00000, 1.38702, 0.12817, 0.09155, -104.05200, -7.17600, 12.85700

12604, 135.00000, -342.00000, 2077.00000, 1.44806, 0.06714, 0.03052, -103.90250, -5.23250, 1312644, 132.00000, -341.00000, 2075.00000, 1.44806, 0.12817, 0.09155, -103.90250, -5.23250, 1312693, 134.00000, -339.00000, 2072.00000, 1.38702, 0.12817, 0.03052, -103.90250, -5.53150, 1112733, 133.00000, -340.00000, 2073.00000, 1.44806, 0.06714, -0.03052, -101.36100, -4.03650, 112773, 132.00000, -342.00000, 2072.00000, 1.44806, 0.12817, -0.03052, -104.79950, -7.62450, 112813, 136.00000, -341.00000, 2074.00000, 1.50909, 0.06714, 0.03052, -104.79950, -7.62450, 1212853, 128.00000, -340.00000, 2073.00000, 1.44806, 0.06714, 0.03052, -105.39750, -5.68100, 1312893, 129.00000, -341.00000, 2073.00000, 1.50909, 0.06714, 0.03052, -105.39750, -5.68100, 1312943, 132.00000, -341.00000, 2072.00000, 1.44806, 0.12817, 0.03052, -103.60350, -4.93350, 1112983, 131.00000, -342.00000, 2072.00000, 1.50909, 0.06714, 0.03052, -101.80950, -0.89700, 1113023, 129.00000, -342.00000, 2075.00000, 1.44806, 0.00610, 0.03052, -104.79950, -6.87700, 1213063, 130.00000, -341.00000, 2075.00000, 1.44806, 0.12817, 0.03052, -104.50050, -4.78400, 1313103, 131.00000, -340.00000, 2076.00000, 1.44806, 0.12817, 0.03052, -104.05200, -7.17600, 1213143, 132.00000, -339.00000, 2073.00000, 1.38702, 0.12817, 0.09155, -104.05200, -7.17600, 12.85700

12644, 132.00000, -341.00000, 2075.00000, 1.44806, 0.12817, 0.09155, -103.90250, -5.23250, 1312693, 134.00000, -339.00000, 2072.00000, 1.38702, 0.12817, 0.03052, -103.90250, -5.53150, 1112733, 133.00000, -340.00000, 2073.00000, 1.44806, 0.06714, -0.03052, -101.36100, -4.03650, 112773, 132.00000, -342.00000, 2072.00000, 1.44806, 0.12817, -0.03052, -104.79950, -7.62450, 112813, 136.00000, -341.00000, 2074.00000, 1.50909, 0.06714, 0.03052, -104.79950, -7.62450, 1212853, 128.00000, -340.00000, 2073.00000, 1.44806, 0.06714, 0.03052, -105.39750, -5.68100, 1312893, 129.00000, -341.00000, 2073.00000, 1.50909, 0.06714, 0.03052, -105.39750, -5.68100, 1312943, 132.00000, -341.00000, 2072.00000, 1.44806, 0.12817, 0.03052, -103.60350, -4.93350, 1112983, 131.00000, -342.00000, 2072.00000, 1.50909, 0.06714, 0.03052, -101.80950, -0.89700, 1113023, 129.00000, -342.00000, 2075.00000, 1.44806, 0.00610, 0.03052, -104.79950, -6.87700, 1213063, 130.00000, -341.00000, 2075.00000, 1.44806, 0.12817, 0.03052, -104.50050, -4.78400, 1313103, 131.00000, -340.00000, 2076.00000, 1.44806, 0.12817, 0.03052, -104.05200, -7.17600, 1213143, 132.00000, -339.00000, 2073.00000, 1.38702, 0.12817, 0.09155, -104.05200, -7.17600, 12.85700

12693, 134.00000, -339.00000, 2072.00000, 1.38702, 0.12817, 0.03052, -103.90250, -5.53150, 1112733, 133.00000, -340.00000, 2073.00000, 1.44806, 0.06714, -0.03052, -101.36100, -4.03650, 112773, 132.00000, -342.00000, 2072.00000, 1.44806, 0.12817, -0.03052, -104.79950, -7.62450, 112813, 136.00000, -341.00000, 2074.00000, 1.50909, 0.06714, 0.03052, -104.79950, -7.62450, 1212853, 128.00000, -340.00000, 2073.00000, 1.44806, 0.06714, 0.03052, -105.39750, -5.68100, 1312893, 129.00000, -341.00000, 2073.00000, 1.50909, 0.06714, 0.03052, -105.39750, -5.68100, 1312943, 132.00000, -341.00000, 2072.00000, 1.44806, 0.12817, 0.03052, -103.60350, -4.93350, 1112983, 131.00000, -342.00000, 2072.00000, 1.50909, 0.06714, 0.03052, -101.80950, -0.89700, 1113023, 129.00000, -342.00000, 2075.00000, 1.44806, 0.00610, 0.03052, -104.79950, -6.87700, 1213063, 130.00000, -341.00000, 2075.00000, 1.44806, 0.12817, 0.03052, -104.50050, -4.78400, 1313103, 131.00000, -340.00000, 2076.00000, 1.44806, 0.12817, 0.03052, -104.05200, -7.17600, 1213143, 132.00000, -339.00000, 2073.00000, 1.38702, 0.12817, 0.09155, -104.05200, -7.17600, 12.85700

12733, 133.00000, -340.00000, 2073.00000, 1.44806, 0.06714, -0.03052, -101.36100, -4.03650, 112773, 132.00000, -342.00000, 2072.00000, 1.44806, 0.12817, -0.03052, -104.79950, -7.62450, 112813, 136.00000, -341.00000, 2074.00000, 1.50909, 0.06714, 0.03052, -104.79950, -7.62450, 1212853, 128.00000, -340.00000, 2073.00000, 1.44806, 0.06714, 0.03052, -105.39750, -5.68100, 1312893, 129.00000, -341.00000, 2073.00000, 1.50909, 0.06714, 0.03052, -105.39750, -5.68100, 1312943, 132.00000, -341.00000, 2072.00000, 1.44806, 0.12817, 0.03052, -103.60350, -4.93350, 1112983, 131.00000, -342.00000, 2072.00000, 1.50909, 0.06714, 0.03052, -101.80950, -0.89700, 1113023, 129.00000, -342.00000, 2075.00000, 1.44806, 0.00610, 0.03052, -104.79950, -6.87700, 1213063, 130.00000, -341.00000, 2075.00000, 1.44806, 0.12817, 0.03052, -104.50050, -4.78400, 1313103, 131.00000, -340.00000, 2076.00000, 1.44806, 0.12817, 0.03052, -104.05200, -7.17600, 1213143, 132.00000, -339.00000, 2073.00000, 1.38702, 0.12817, 0.09155, -104.05200, -7.17600, 12.85700

12773, 132.00000, -342.00000, 2072.00000, 1.44806, 0.12817, -0.03052, -104.79950, -7.62450, 112813, 136.00000, -341.00000, 2074.00000, 1.50909, 0.06714, 0.03052, -104.79950, -7.62450, 1212853, 128.00000, -340.00000, 2073.00000, 1.44806, 0.06714, 0.03052, -105.39750, -5.68100, 1312893, 129.00000, -341.00000, 2073.00000, 1.50909, 0.06714, 0.03052, -105.39750, -5.68100, 1312943, 132.00000, -341.00000, 2072.00000, 1.44806, 0.12817, 0.03052, -103.60350, -4.93350, 1112983, 131.00000, -342.00000, 2072.00000, 1.50909, 0.06714, 0.03052, -101.80950, -0.89700, 1113023, 129.00000, -342.00000, 2075.00000, 1.44806, 0.00610, 0.03052, -104.79950, -6.87700, 1213063, 130.00000, -341.00000, 2075.00000, 1.44806, 0.12817, 0.03052, -104.50050, -4.78400, 1313103, 131.00000, -340.00000, 2076.00000, 1.44806, 0.12817, 0.03052, -104.05200, -7.17600, 1213143, 132.00000, -339.00000, 2073.00000, 1.38702, 0.12817, 0.09155, -104.05200, -7.17600, 12.85700

12813, 136.00000, -341.00000, 2074.00000, 1.50909, 0.06714, 0.03052, -104.79950, -7.62450, 1212853, 128.00000, -340.00000, 2073.00000, 1.44806, 0.06714, 0.03052, -105.39750, -5.68100, 1312893, 129.00000, -341.00000, 2073.00000, 1.50909, 0.06714, 0.03052, -105.39750, -5.68100, 1312943, 132.00000, -341.00000, 2072.00000, 1.44806, 0.12817, 0.03052, -103.60350, -4.93350, 1112983, 131.00000, -342.00000, 2072.00000, 1.50909, 0.06714, 0.03052, -101.80950, -0.89700, 1113023, 129.00000, -342.00000, 2075.00000, 1.44806, 0.00610, 0.03052, -104.79950, -6.87700, 1213063, 130.00000, -341.00000, 2075.00000, 1.44806, 0.12817, 0.03052, -104.50050, -4.78400, 1313103, 131.00000, -340.00000, 2076.00000, 1.44806, 0.12817, 0.03052, -104.05200, -7.17600, 1213143, 132.00000, -339.00000, 2073.00000, 1.38702, 0.12817, 0.09155, -104.05200, -7.17600, 12.85700

12853, 128.00000, -340.00000, 2073.00000, 1.44806, 0.06714, 0.03052, -105.39750, -5.68100, 1312893, 129.00000, -341.00000, 2073.00000, 1.50909, 0.06714, 0.03052, -105.39750, -5.68100, 1312943, 132.00000, -341.00000, 2072.00000, 1.44806, 0.12817, 0.03052, -103.60350, -4.93350, 1112983, 131.00000, -342.00000, 2072.00000, 1.50909, 0.06714, 0.03052, -101.80950, -0.89700, 1113023, 129.00000, -342.00000, 2075.00000, 1.44806, 0.00610, 0.03052, -104.79950, -6.87700, 1213063, 130.00000, -341.00000, 2075.00000, 1.44806, 0.12817, 0.03052, -104.50050, -4.78400, 1313103, 131.00000, -340.00000, 2076.00000, 1.44806, 0.12817, 0.03052, -104.05200, -7.17600, 1213143, 132.00000, -339.00000, 2073.00000, 1.38702, 0.12817, 0.09155, -104.05200, -7.17600, 12.85700

12893, 129.00000, -341.00000, 2073.00000, 1.50909, 0.06714, 0.03052, -105.39750, -5.68100, 1312943, 132.00000, -341.00000, 2072.00000, 1.44806, 0.12817, 0.03052, -103.60350, -4.93350, 1112983, 131.00000, -342.00000, 2072.00000, 1.50909, 0.06714, 0.03052, -101.80950, -0.89700, 1113023, 129.00000, -342.00000, 2075.00000, 1.44806, 0.00610, 0.03052, -104.79950, -6.87700, 1213063, 130.00000, -341.00000, 2075.00000, 1.44806, 0.12817, 0.03052, -104.50050, -4.78400, 1313103, 131.00000, -340.00000, 2076.00000, 1.44806, 0.12817, 0.03052, -104.05200, -7.17600, 1213143, 132.00000, -339.00000, 2073.00000, 1.38702, 0.12817, 0.09155, -104.05200, -7.17600, 12.85700

