//--------- NEW START ---------//
// Drifter number: 1, Battery: 3.61
// IMU_update: 40 ms, GPS_update: 250 ms, Transciever_update: 8000 ms
// Accel_range: 16G, Gyro_range: 2000 dps
IMUtime, Ax, Ay, Az, Gx, Gy, Gz, Mx, My, Mz, P, T
8702, 1830.00000, -209.00000, 920.00000, 1.44806, 0.18921, 0.09155, -102.70650, 17.94000, -428742, 1830.00000, -212.00000, 926.00000, 1.63116, -0.17700, -0.09155, -101.36100, 17.19250, -8782, 1831.00000, -215.00000, 921.00000, 1.50909, 0.31128, 0.09155, -100.76300, 16.89350, -438822, 1833.00000, -215.00000, 923.00000, 1.57013, -0.11597, -0.15259, -101.95900, 15.69750, -8862, 1833.00000, -217.00000, 926.00000, 1.26495, 0.25024, 0.27466, -100.91250, 18.68750, -448902, 1829.00000, -217.00000, 921.00000, 1.32599, -0.05493, 0.03052, -101.95900, 18.98650, -48942, 1829.00000, -209.00000, 927.00000, 1.57013, -0.36011, -0.15259, -101.95900, 18.98650, -8982, 1831.00000, -213.00000, 931.00000, 1.20392, 0.49438, 0.33569, -101.95900, 18.98650, -439022, 1831.00000, -208.00000, 917.00000, 1.69220, -0.36011, -0.27466, -104.20150, 16.74400, -9062, 1828.00000, -214.00000, 926.00000, 1.57013, 0.06714, -0.09155, -101.06200, 17.64100, -49102, 1835.00000, -211.00000, 923.00000, 1.32599, 0.61646, 0.27466, -100.91250, 18.23900, -449142, 1833.00000, -218.00000, 923.00000, 1.57013, -0.36011, -0.27466, -100.91250, 18.23900, -9182, 1831.00000, -220.00000, 925.00000, 1.38702, 0.12817, 0.09155, -100.61349, 18.23900, -439233, 1832.00000, -212.00000, 922.00000, 1.44806, 0.25024, 0.09155, -101.51050, 16.59450, -449273, 1836.00000, -212.00000, 925.00000, 1.50909, 0.18921, -0.09155, -100.91250, 17.19250, -49313, 1835.00000, -213.00000, 925.00000, 1.57013, -0.05493, -0.21362, -100.91250, 17.19250, -9353, 1825.00000, -223.00000, 928.00000, 1.38702, 0.18921, 0.09155, -100.91250, 17.19250, -439393, 1839.00000, -219.00000, 931.00000, 1.26495, 0.55542, 0.21362, -100.91250, 17.19250, -439433, 1826.00000, -209.00000, 920.00000, 1.69220, -0.48218, -0.27466, -103.45399, 16.44500, -9479, 1826.00000, -224.00000, 927.00000, 1.57013, -0.42114, -0.33569, -103.00550, 18.38850, -9519, 1844.00000, -208.00000, 918.00000, 1.26495, 0.43335, 0.21362, -101.80950, 16.89350, -449559, 1829.00000, -208.00000, 920.00000, 1.69220, -0.60425, -0.33569, -102.40750, 17.49150, -9599, 1825.00000, -219.00000, 931.00000, 1.32599, 0.86060, 0.39673, -100.76300, 16.59450, -429639, 1832.00000, -210.00000, 930.00000, 1.57013, 0.00610, -0.09155, -100.76300, 16.59450, -49679, 1827.00000, -218.00000, 926.00000, 1.57013, -0.11597, -0.15259, -100.76300, 16.59450, -42.75700
8742, 1830.00000, -212.00000, 926.00000, 1.63116, -0.17700, -0.09155, -101.36100, 17.19250, -8782, 1831.00000, -215.00000, 921.00000, 1.50909, 0.31128, 0.09155, -100.76300, 16.89350, -438822, 1833.00000, -215.00000, 923.00000, 1.57013, -0.11597, -0.15259, -101.95900, 15.69750, -8862, 1833.00000, -217.00000, 926.00000, 1.26495, 0.25024, 0.27466, -100.91250, 18.68750, -448902, 1829.00000, -217.00000, 921.00000, 1.32599, -0.05493, 0.03052, -101.95900, 18.98650, -48942, 1829.00000, -209.00000, 927.00000, 1.57013, -0.36011, -0.15259, -101.95900, 18.98650, -8982, 1831.00000, -213.00000, 931.00000, 1.20392, 0.49438, 0.33569, -101.95900, 18.98650, -439022, 1831.00000, -208.00000, 917.00000, 1.69220, -0.36011, -0.27466, -104.20150, 16.74400, -9062, 1828.00000, -214.00000, 926.00000, 1.57013, 0.06714, -0.09155, -101.06200, 17.64100, -49102, 1835.00000, -211.00000, 923.00000, 1.32599, 0.61646, 0.27466, -100.91250, 18.23900, -449142, 1833.00000, -218.00000, 923.00000, 1.57013, -0.36011, -0.27466, -100.91250, 18.23900, -9182, 1831.00000, -220.00000, 925.00000, 1.38702, 0.12817, 0.09155, -100.61349, 18.23900, -439233, 1832.00000, -212.00000, 922.00000, 1.44806, 0.25024, 0.09155, -101.51050, 16.59450, -449273, 1836.00000, -212.00000, 925.00000, 1.50909, 0.18921, -0.09155, -100.91250, 17.19250, -49313, 1835.00000, -213.00000, 925.00000, 1.57013, -0.05493, -0.21362, -100.91250, 17.19250, -9353, 1825.00000, -223.00000, 928.00000, 1.38702, 0.18921, 0.09155, -100.91250, 17.19250, -439393, 1839.00000, -219.00000, 931.00000, 1.26495, 0.55542, 0.21362, -100.91250, 17.19250, -439433, 1826.00000, -209.00000, 920.00000, 1.69220, -0.48218, -0.27466, -103.45399, 16.44500, -9479, 1826.00000, -224.00000, 927.00000, 1.57013, -0.42114, -0.33569, -103.00550, 18.38850, -9519, 1844.00000, -208.00000, 918.00000, 1.26495, 0.43335, 0.21362, -101.80950, 16.89350, -449559, 1829.00000, -208.00000, 920.00000, 1.69220, -0.60425, -0.33569, -102.40750, 17.49150, -9599, 1825.00000, -219.00000, 931.00000, 1.32599, 0.86060, 0.39673, -100.76300, 16.59450, -429639, 1832.00000, -210.00000, 930.00000, 1.57013, 0.00610, -0.09155, -100.76300, 16.59450, -49679, 1827.00000, -218.00000, 926.00000, 1.57013, -0.11597, -0.15259, -100.76300, 16.59450, -42.75700
8782, 1831.00000, -215.00000, 921.00000, 1.50909, 0.31128, 0.09155, -100.76300, 16.89350, -438822, 1833.00000, -215.00000, 923.00000, 1.57013, -0.11597, -0.15259, -101.95900, 15.69750, -8862, 1833.00000, -217.00000, 926.00000, 1.26495, 0.25024, 0.27466, -100.91250, 18.68750, -448902, 1829.00000, -217.00000, 921.00000, 1.32599, -0.05493, 0.03052, -101.95900, 18.98650, -48942, 1829.00000, -209.00000, 927.00000, 1.57013, -0.36011, -0.15259, -101.95900, 18.98650, -8982, 1831.00000, -213.00000, 931.00000, 1.20392, 0.49438, 0.33569, -101.95900, 18.98650, -439022, 1831.00000, -208.00000, 917.00000, 1.69220, -0.36011, -0.27466, -104.20150, 16.74400, -9062, 1828.00000, -214.00000, 926.00000, 1.57013, 0.06714, -0.09155, -101.06200, 17.64100, -49102, 1835.00000, -211.00000, 923.00000, 1.32599, 0.61646, 0.27466, -100.91250, 18.23900, -449142, 1833.00000, -218.00000, 923.00000, 1.57013, -0.36011, -0.27466, -100.91250, 18.23900, -9182, 1831.00000, -220.00000, 925.00000, 1.38702, 0.12817, 0.09155, -100.61349, 18.23900, -439233, 1832.00000, -212.00000, 922.00000, 1.44806, 0.25024, 0.09155, -101.51050, 16.59450, -449273, 1836.00000, -212.00000, 925.00000, 1.50909, 0.18921, -0.09155, -100.91250, 17.19250, -49313, 1835.00000, -213.00000, 925.00000, 1.57013, -0.05493, -0.21362, -100.91250, 17.19250, -9353, 1825.00000, -223.00000, 928.00000, 1.38702, 0.18921, 0.09155, -100.91250, 17.19250, -439393, 1839.00000, -219.00000, 931.00000, 1.26495, 0.55542, 0.21362, -100.91250, 17.19250, -439433, 1826.00000, -209.00000, 920.00000, 1.69220, -0.48218, -0.27466, -103.45399, 16.44500, -9479, 1826.00000, -224.00000, 927.00000, 1.57013, -0.42114, -0.33569, -103.00550, 18.38850, -9519, 1844.00000, -208.00000, 918.00000, 1.26495, 0.43335, 0.21362, -101.80950, 16.89350, -449559, 1829.00000, -208.00000, 920.00000, 1.69220, -0.60425, -0.33569, -102.40750, 17.49150, -9599, 1825.00000, -219.00000, 931.00000, 1.32599, 0.86060, 0.39673, -100.76300, 16.59450, -429639, 1832.00000, -210.00000, 930.00000, 1.57013, 0.00610, -0.09155, -100.76300, 16.59450, -49679, 1827.00000, -218.00000, 926.00000, 1.57013, -0.11597, -0.15259, -100.76300, 16.59450, -42.75700
8822, 1833.00000, -215.00000, 923.00000, 1.57013, -0.11597, -0.15259, -101.95900, 15.69750, -8862, 1833.00000, -217.00000, 926.00000, 1.26495, 0.25024, 0.27466, -100.91250, 18.68750, -448902, 1829.00000, -217.00000, 921.00000, 1.32599, -0.05493, 0.03052, -101.95900, 18.98650, -48942, 1829.00000, -209.00000, 927.00000, 1.57013, -0.36011, -0.15259, -101.95900, 18.98650, -8982, 1831.00000, -213.00000, 931.00000, 1.20392, 0.49438, 0.33569, -101.95900, 18.98650, -439022, 1831.00000, -208.00000, 917.00000, 1.69220, -0.36011, -0.27466, -104.20150, 16.74400, -9062, 1828.00000, -214.00000, 926.00000, 1.57013, 0.06714, -0.09155, -101.06200, 17.64100, -49102, 1835.00000, -211.00000, 923.00000, 1.32599, 0.61646, 0.27466, -100.91250, 18.23900, -449142, 1833.00000, -218.00000, 923.00000, 1.57013, -0.36011, -0.27466, -100.91250, 18.23900, -9182, 1831.00000, -220.00000, 925.00000, 1.38702, 0.12817, 0.09155, -100.61349, 18.23900, -439233, 1832.00000, -212.00000, 922.00000, 1.44806, 0.25024, 0.09155, -101.51050, 16.59450, -449273, 1836.00000, -212.00000, 925.00000, 1.50909, 0.18921, -0.09155, -100.91250, 17.19250, -49313, 1835.00000, -213.00000, 925.00000, 1.57013, -0.05493, -0.21362, -100.91250, 17.19250, -9353, 1825.00000, -223.00000, 928.00000, 1.38702, 0.18921, 0.09155, -100.91250, 17.19250, -439393, 1839.00000, -219.00000, 931.00000, 1.26495, 0.55542, 0.21362, -100.91250, 17.19250, -439433, 1826.00000, -209.00000, 920.00000, 1.69220, -0.48218, -0.27466, -103.45399, 16.44500, -9479, 1826.00000, -224.00000, 927.00000, 1.57013, -0.42114, -0.33569, -103.00550, 18.38850, -9519, 1844.00000, -208.00000, 918.00000, 1.26495, 0.43335, 0.21362, -101.80950, 16.89350, -449559, 1829.00000, -208.00000, 920.00000, 1.69220, -0.60425, -0.33569, -102.40750, 17.49150, -9599, 1825.00000, -219.00000, 931.00000, 1.32599, 0.86060, 0.39673, -100.76300, 16.59450, -429639, 1832.00000, -210.00000, 930.00000, 1.57013, 0.00610, -0.09155, -100.76300, 16.59450, -49679, 1827.00000, -218.00000, 926.00000, 1.57013, -0.11597, -0.15259, -100.76300, 16.59450, -42.75700
8862, 1833.00000, -217.00000, 926.00000, 1.26495, 0.25024, 0.27466, -100.91250, 18.68750, -448902, 1829.00000, -217.00000, 921.00000, 1.32599, -0.05493, 0.03052, -101.95900, 18.98650, -48942, 1829.00000, -209.00000, 927.00000, 1.57013, -0.36011, -0.15259, -101.95900, 18.98650, -8982, 1831.00000, -213.00000, 931.00000, 1.20392, 0.49438, 0.33569, -101.95900, 18.98650, -439022, 1831.00000, -208.00000, 917.00000, 1.69220, -0.36011, -0.27466, -104.20150, 16.74400, -9062, 1828.00000, -214.00000, 926.00000, 1.57013, 0.06714, -0.09155, -101.06200, 17.64100, -49102, 1835.00000, -211.00000, 923.00000, 1.32599, 0.61646, 0.27466, -100.91250, 18.23900, -449142, 1833.00000, -218.00000, 923.00000, 1.57013, -0.36011, -0.27466, -100.91250, 18.23900, -9182, 1831.00000, -220.00000, 925.00000, 1.38702, 0.12817, 0.09155, -100.61349, 18.23900, -439233, 1832.00000, -212.00000, 922.00000, 1.44806, 0.25024, 0.09155, -101.51050, 16.59450, -449273, 1836.00000, -212.00000, 925.00000, 1.50909, 0.18921, -0.09155, -100.91250, 17.19250, -49313, 1835.00000, -213.00000, 925.00000, 1.57013, -0.05493, -0.21362, -100.91250, 17.19250, -9353, 1825.00000, -223.00000, 928.00000, 1.38702, 0.18921, 0.09155, -100.91250, 17.19250, -439393, 1839.00000, -219.00000, 931.00000, 1.26495, 0.55542, 0.21362, -100.91250, 17.19250, -439433, 1826.00000, -209.00000, 920.00000, 1.69220, -0.48218, -0.27466, -103.45399, 16.44500, -9479, 1826.00000, -224.00000, 927.00000, 1.57013, -0.42114, -0.33569, -103.00550, 18.38850, -9519, 1844.00000, -208.00000, 918.00000, 1.26495, 0.43335, 0.21362, -101.80950, 16.89350, -449559, 1829.00000, -208.00000, 920.00000, 1.69220, -0.60425, -0.33569, -102.40750, 17.49150, -9599, 1825.00000, -219.00000, 931.00000, 1.32599, 0.86060, 0.39673, -100.76300, 16.59450, -429639, 1832.00000, -210.00000, 930.00000, 1.57013, 0.00610, -0.09155, -100.76300, 16.59450, -49679, 1827.00000, -218.00000, 926.00000, 1.57013, -0.11597, -0.15259, -100.76300, 16.59450, -42.75700
8902, 1829.00000, -217.00000, 921.00000, 1.32599, -0.05493, 0.03052, -101.95900, 18.98650, -48942, 1829.00000, -209.00000, 927.00000, 1.57013, -0.36011, -0.15259, -101.95900, 18.98650, -8982, 1831.00000, -213.00000, 931.00000, 1.20392, 0.49438, 0.33569, -101.95900, 18.98650, -439022, 1831.00000, -208.00000, 917.00000, 1.69220, -0.36011, -0.27466, -104.20150, 16.74400, -9062, 1828.00000, -214.00000, 926.00000, 1.57013, 0.06714, -0.09155, -101.06200, 17.64100, -49102, 1835.00000, -211.00000, 923.00000, 1.32599, 0.61646, 0.27466, -100.91250, 18.23900, -449142, 1833.00000, -218.00000, 923.00000, 1.57013, -0.36011, -0.27466, -100.91250, 18.23900, -9182, 1831.00000, -220.00000, 925.00000, 1.38702, 0.12817, 0.09155, -100.61349, 18.23900, -439233, 1832.00000, -212.00000, 922.00000, 1.44806, 0.25024, 0.09155, -101.51050, 16.59450, -449273, 1836.00000, -212.00000, 925.00000, 1.50909, 0.18921, -0.09155, -100.91250, 17.19250, -49313, 1835.00000, -213.00000, 925.00000, 1.57013, -0.05493, -0.21362, -100.91250, 17.19250, -9353, 1825.00000, -223.00000, 928.00000, 1.38702, 0.18921, 0.09155, -100.91250, 17.19250, -439393, 1839.00000, -219.00000, 931.00000, 1.26495, 0.55542, 0.21362, -100.91250, 17.19250, -439433, 1826.00000, -209.00000, 920.00000, 1.69220, -0.48218, -0.27466, -103.45399, 16.44500, -9479, 1826.00000, -224.00000, 927.00000, 1.57013, -0.42114, -0.33569, -103.00550, 18.38850, -9519, 1844.00000, -208.00000, 918.00000, 1.26495, 0.43335, 0.21362, -101.80950, 16.89350, -449559, 1829.00000, -208.00000, 920.00000, 1.69220, -0.60425, -0.33569, -102.40750, 17.49150, -9599, 1825.00000, -219.00000, 931.00000, 1.32599, 0.86060, 0.39673, -100.76300, 16.59450, -429639, 1832.00000, -210.00000, 930.00000, 1.57013, 0.00610, -0.09155, -100.76300, 16.59450, -49679, 1827.00000, -218.00000, 926.00000, 1.57013, -0.11597, -0.15259, -100.76300, 16.59450, -42.75700
8942, 1829.00000, -209.00000, 927.00000, 1.57013, -0.36011, -0.15259, -101.95900, 18.98650, -8982, 1831.00000, -213.00000, 931.00000, 1.20392, 0.49438, 0.33569, -101.95900, 18.98650, -439022, 1831.00000, -208.00000, 917.00000, 1.69220, -0.36011, -0.27466, -104.20150, 16.74400, -9062, 1828.00000, -214.00000, 926.00000, 1.57013, 0.06714, -0.09155, -101.06200, 17.64100, -49102, 1835.00000, -211.00000, 923.00000, 1.32599, 0.61646, 0.27466, -100.91250, 18.23900, -449142, 1833.00000, -218.00000, 923.00000, 1.57013, -0.36011, -0.27466, -100.91250, 18.23900, -9182, 1831.00000, -220.00000, 925.00000, 1.38702, 0.12817, 0.09155, -100.61349, 18.23900, -439233, 1832.00000, -212.00000, 922.00000, 1.44806, 0.25024, 0.09155, -101.51050, 16.59450, -449273, 1836.00000, -212.00000, 925.00000, 1.50909, 0.18921, -0.09155, -100.91250, 17.19250, -49313, 1835.00000, -213.00000, 925.00000, 1.57013, -0.05493, -0.21362, -100.91250, 17.19250, -9353, 1825.00000, -223.00000, 928.00000, 1.38702, 0.18921, 0.09155, -100.91250, 17.19250, -439393, 1839.00000, -219.00000, 931.00000, 1.26495, 0.55542, 0.21362, -100.91250, 17.19250, -439433, 1826.00000, -209.00000, 920.00000, 1.69220, -0.48218, -0.27466, -103.45399, 16.44500, -9479, 1826.00000, -224.00000, 927.00000, 1.57013, -0.42114, -0.33569, -103.00550, 18.38850, -9519, 1844.00000, -208.00000, 918.00000, 1.26495, 0.43335, 0.21362, -101.80950, 16.89350, -449559, 1829.00000, -208.00000, 920.00000, 1.69220, -0.60425, -0.33569, -102.40750, 17.49150, -9599, 1825.00000, -219.00000, 931.00000, 1.32599, 0.86060, 0.39673, -100.76300, 16.59450, -429639, 1832.00000, -210.00000, 930.00000, 1.57013, 0.00610, -0.09155, -100.76300, 16.59450, -49679, 1827.00000, -218.00000, 926.00000, 1.57013, -0.11597, -0.15259, -100.76300, 16.59450, -42.75700
8982, 1831.00000, -213.00000, 931.00000, 1.20392, 0.49438, 0.33569, -101.95900, 18.98650, -439022, 1831.00000, -208.00000, 917.00000, 1.69220, -0.36011, -0.27466, -104.20150, 16.74400, -9062, 1828.00000, -214.00000, 926.00000, 1.57013, 0.06714, -0.09155, -101.06200, 17.64100, -49102, 1835.00000, -211.00000, 923.00000, 1.32599, 0.61646, 0.27466, -100.91250, 18.23900, -449142, 1833.00000, -218.00000, 923.00000, 1.57013, -0.36011, -0.27466, -100.91250, 18.23900, -9182, 1831.00000, -220.00000, 925.00000, 1.38702, 0.12817, 0.09155, -100.61349, 18.23900, -439233, 1832.00000, -212.00000, 922.00000, 1.44806, 0.25024, 0.09155, -101.51050, 16.59450, -449273, 1836.00000, -212.00000, 925.00000, 1.50909, 0.18921, -0.09155, -100.91250, 17.19250, -49313, 1835.00000, -213.00000, 925.00000, 1.57013, -0.05493, -0.21362, -100.91250, 17.19250, -9353, 1825.00000, -223.00000, 928.00000, 1.38702, 0.18921, 0.09155, -100.91250, 17.19250, -439393, 1839.00000, -219.00000, 931.00000, 1.26495, 0.55542, 0.21362, -100.91250, 17.19250, -439433, 1826.00000, -209.00000, 920.00000, 1.69220, -0.48218, -0.27466, -103.45399, 16.44500, -9479, 1826.00000, -224.00000, 927.00000, 1.57013, -0.42114, -0.33569, -103.00550, 18.38850, -9519, 1844.00000, -208.00000, 918.00000, 1.26495, 0.43335, 0.21362, -101.80950, 16.89350, -449559, 1829.00000, -208.00000, 920.00000, 1.69220, -0.60425, -0.33569, -102.40750, 17.49150, -9599, 1825.00000, -219.00000, 931.00000, 1.32599, 0.86060, 0.39673, -100.76300, 16.59450, -429639, 1832.00000, -210.00000, 930.00000, 1.57013, 0.00610, -0.09155, -100.76300, 16.59450, -49679, 1827.00000, -218.00000, 926.00000, 1.57013, -0.11597, -0.15259, -100.76300, 16.59450, -42.75700
9022, 1831.00000, -208.00000, 917.00000, 1.69220, -0.36011, -0.27466, -104.20150, 16.74400, -9062, 1828.00000, -214.00000, 926.00000, 1.57013, 0.06714, -0.09155, -101.06200, 17.64100, -49102, 1835.00000, -211.00000, 923.00000, 1.32599, 0.61646, 0.27466, -100.91250, 18.23900, -449142, 1833.00000, -218.00000, 923.00000, 1.57013, -0.36011, -0.27466, -100.91250, 18.23900, -9182, 1831.00000, -220.00000, 925.00000, 1.38702, 0.12817, 0.09155, -100.61349, 18.23900, -439233, 1832.00000, -212.00000, 922.00000, 1.44806, 0.25024, 0.09155, -101.51050, 16.59450, -449273, 1836.00000, -212.00000, 925.00000, 1.50909, 0.18921, -0.09155, -100.91250, 17.19250, -49313, 1835.00000, -213.00000, 925.00000, 1.57013, -0.05493, -0.21362, -100.91250, 17.19250, -9353, 1825.00000, -223.00000, 928.00000, 1.38702, 0.18921, 0.09155, -100.91250, 17.19250, -439393, 1839.00000, -219.00000, 931.00000, 1.26495, 0.55542, 0.21362, -100.91250, 17.19250, -439433, 1826.00000, -209.00000, 920.00000, 1.69220, -0.48218, -0.27466, -103.45399, 16.44500, -9479, 1826.00000, -224.00000, 927.00000, 1.57013, -0.42114, -0.33569, -103.00550, 18.38850, -9519, 1844.00000, -208.00000, 918.00000, 1.26495, 0.43335, 0.21362, -101.80950, 16.89350, -449559, 1829.00000, -208.00000, 920.00000, 1.69220, -0.60425, -0.33569, -102.40750, 17.49150, -9599, 1825.00000, -219.00000, 931.00000, 1.32599, 0.86060, 0.39673, -100.76300, 16.59450, -429639, 1832.00000, -210.00000, 930.00000, 1.57013, 0.00610, -0.09155, -100.76300, 16.59450, -49679, 1827.00000, -218.00000, 926.00000, 1.57013, -0.11597, -0.15259, -100.76300, 16.59450, -42.75700
9062, 1828.00000, -214.00000, 926.00000, 1.57013, 0.06714, -0.09155, -101.06200, 17.64100, -49102, 1835.00000, -211.00000, 923.00000, 1.32599, 0.61646, 0.27466, -100.91250, 18.23900, -449142, 1833.00000, -218.00000, 923.00000, 1.57013, -0.36011, -0.27466, -100.91250, 18.23900, -9182, 1831.00000, -220.00000, 925.00000, 1.38702, 0.12817, 0.09155, -100.61349, 18.23900, -439233, 1832.00000, -212.00000, 922.00000, 1.44806, 0.25024, 0.09155, -101.51050, 16.59450, -449273, 1836.00000, -212.00000, 925.00000, 1.50909, 0.18921, -0.09155, -100.91250, 17.19250, -49313, 1835.00000, -213.00000, 925.00000, 1.57013, -0.05493, -0.21362, -100.91250, 17.19250, -9353, 1825.00000, -223.00000, 928.00000, 1.38702, 0.18921, 0.09155, -100.91250, 17.19250, -439393, 1839.00000, -219.00000, 931.00000, 1.26495, 0.55542, 0.21362, -100.91250, 17.19250, -439433, 1826.00000, -209.00000, 920.00000, 1.69220, -0.48218, -0.27466, -103.45399, 16.44500, -9479, 1826.00000, -224.00000, 927.00000, 1.57013, -0.42114, -0.33569, -103.00550, 18.38850, -9519, 1844.00000, -208.00000, 918.00000, 1.26495, 0.43335, 0.21362, -101.80950, 16.89350, -449559, 1829.00000, -208.00000, 920.00000, 1.69220, -0.60425, -0.33569, -102.40750, 17.49150, -9599, 1825.00000, -219.00000, 931.00000, 1.32599, 0.86060, 0.39673, -100.76300, 16.59450, -429639, 1832.00000, -210.00000, 930.00000, 1.57013, 0.00610, -0.09155, -100.76300, 16.59450, -49679, 1827.00000, -218.00000, 926.00000, 1.57013, -0.11597, -0.15259, -100.76300, 16.59450, -42.75700
9102, 1835.00000, -211.00000, 923.00000, 1.32599, 0.61646, 0.27466, -100.91250, 18.23900, -449142, 1833.00000, -218.00000, 923.00000, 1.57013, -0.36011, -0.27466, -100.91250, 18.23900, -9182, 1831.00000, -220.00000, 925.00000, 1.38702, 0.12817, 0.09155, -100.61349, 18.23900, -439233, 1832.00000, -212.00000, 922.00000, 1.44806, 0.25024, 0.09155, -101.51050, 16.59450, -449273, 1836.00000, -212.00000, 925.00000, 1.50909, 0.18921, -0.09155, -100.91250, 17.19250, -49313, 1835.00000, -213.00000, 925.00000, 1.57013, -0.05493, -0.21362, -100.91250, 17.19250, -9353, 1825.00000, -223.00000, 928.00000, 1.38702, 0.18921, 0.09155, -100.91250, 17.19250, -439393, 1839.00000, -219.00000, 931.00000, 1.26495, 0.55542, 0.21362, -100.91250, 17.19250, -439433, 1826.00000, -209.00000, 920.00000, 1.69220, -0.48218, -0.27466, -103.45399, 16.44500, -9479, 1826.00000, -224.00000, 927.00000, 1.57013, -0.42114, -0.33569, -103.00550, 18.38850, -9519, 1844.00000, -208.00000, 918.00000, 1.26495, 0.43335, 0.21362, -101.80950, 16.89350, -449559, 1829.00000, -208.00000, 920.00000, 1.69220, -0.60425, -0.33569, -102.40750, 17.49150, -9599, 1825.00000, -219.00000, 931.00000, 1.32599, 0.86060, 0.39673, -100.76300, 16.59450, -429639, 1832.00000, -210.00000, 930.00000, 1.57013, 0.00610, -0.09155, -100.76300, 16.59450, -49679, 1827.00000, -218.00000, 926.00000, 1.57013, -0.11597, -0.15259, -100.76300, 16.59450, -42.75700
9142, 1833.00000, -218.00000, 923.00000, 1.57013, -0.36011, -0.27466, -100.91250, 18.23900, -9182, 1831.00000, -220.00000, 925.00000, 1.38702, 0.12817, 0.09155, -100.61349, 18.23900, -439233, 1832.00000, -212.00000, 922.00000, 1.44806, 0.25024, 0.09155, -101.51050, 16.59450, -449273, 1836.00000, -212.00000, 925.00000, 1.50909, 0.18921, -0.09155, -100.91250, 17.19250, -49313, 1835.00000, -213.00000, 925.00000, 1.57013, -0.05493, -0.21362, -100.91250, 17.19250, -9353, 1825.00000, -223.00000, 928.00000, 1.38702, 0.18921, 0.09155, -100.91250, 17.19250, -439393, 1839.00000, -219.00000, 931.00000, 1.26495, 0.55542, 0.21362, -100.91250, 17.19250, -439433, 1826.00000, -209.00000, 920.00000, 1.69220, -0.48218, -0.27466, -103.45399, 16.44500, -9479, 1826.00000, -224.00000, 927.00000, 1.57013, -0.42114, -0.33569, -103.00550, 18.38850, -9519, 1844.00000, -208.00000, 918.00000, 1.26495, 0.43335, 0.21362, -101.80950, 16.89350, -449559, 1829.00000, -208.00000, 920.00000, 1.69220, -0.60425, -0.33569, -102.40750, 17.49150, -9599, 1825.00000, -219.00000, 931.00000, 1.32599, 0.86060, 0.39673, -100.76300, 16.59450, -429639, 1832.00000, -210.00000, 930.00000, 1.57013, 0.00610, -0.09155, -100.76300, 16.59450, -49679, 1827.00000, -218.00000, 926.00000, 1.57013, -0.11597, -0.15259, -100.76300, 16.59450, -42.75700
9182, 1831.00000, -220.00000, 925.00000, 1.38702, 0.12817, 0.09155, -100.61349, 18.23900, -439233, 1832.00000, -212.00000, 922.00000, 1.44806, 0.25024, 0.09155, -101.51050, 16.59450, -449273, 1836.00000, -212.00000, 925.00000, 1.50909, 0.18921, -0.09155, -100.91250, 17.19250, -49313, 1835.00000, -213.00000, 925.00000, 1.57013, -0.05493, -0.21362, -100.91250, 17.19250, -9353, 1825.00000, -223.00000, 928.00000, 1.38702, 0.18921, 0.09155, -100.91250, 17.19250, -439393, 1839.00000, -219.00000, 931.00000, 1.26495, 0.55542, 0.21362, -100.91250, 17.19250, -439433, 1826.00000, -209.00000, 920.00000, 1.69220, -0.48218, -0.27466, -103.45399, 16.44500, -9479, 1826.00000, -224.00000, 927.00000, 1.57013, -0.42114, -0.33569, -103.00550, 18.38850, -9519, 1844.00000, -208.00000, 918.00000, 1.26495, 0.43335, 0.21362, -101.80950, 16.89350, -449559, 1829.00000, -208.00000, 920.00000, 1.69220, -0.60425, -0.33569, -102.40750, 17.49150, -9599, 1825.00000, -219.00000, 931.00000, 1.32599, 0.86060, 0.39673, -100.76300, 16.59450, -429639, 1832.00000, -210.00000, 930.00000, 1.57013, 0.00610, -0.09155, -100.76300, 16.59450, -49679, 1827.00000, -218.00000, 926.00000, 1.57013, -0.11597, -0.15259, -100.76300, 16.59450, -42.75700
9233, 1832.00000, -212.00000, 922.00000, 1.44806, 0.25024, 0.09155, -101.51050, 16.59450, -449273, 1836.00000, -212.00000, 925.00000, 1.50909, 0.18921, -0.09155, -100.91250, 17.19250, -49313, 1835.00000, -213.00000, 925.00000, 1.57013, -0.05493, -0.21362, -100.91250, 17.19250, -9353, 1825.00000, -223.00000, 928.00000, 1.38702, 0.18921, 0.09155, -100.91250, 17.19250, -439393, 1839.00000, -219.00000, 931.00000, 1.26495, 0.55542, 0.21362, -100.91250, 17.19250, -439433, 1826.00000, -209.00000, 920.00000, 1.69220, -0.48218, -0.27466, -103.45399, 16.44500, -9479, 1826.00000, -224.00000, 927.00000, 1.57013, -0.42114, -0.33569, -103.00550, 18.38850, -9519, 1844.00000, -208.00000, 918.00000, 1.26495, 0.43335, 0.21362, -101.80950, 16.89350, -449559, 1829.00000, -208.00000, 920.00000, 1.69220, -0.60425, -0.33569, -102.40750, 17.49150, -9599, 1825.00000, -219.00000, 931.00000, 1.32599, 0.86060, 0.39673, -100.76300, 16.59450, -429639, 1832.00000, -210.00000, 930.00000, 1.57013, 0.00610, -0.09155, -100.76300, 16.59450, -49679, 1827.00000, -218.00000, 926.00000, 1.57013, -0.11597, -0.15259, -100.76300, 16.59450, -42.75700
9273, 1836.00000, -212.00000, 925.00000, 1.50909, 0.18921, -0.09155, -100.91250, 17.19250, -49313, 1835.00000, -213.00000, 925.00000, 1.57013, -0.05493, -0.21362, -100.91250, 17.19250, -9353, 1825.00000, -223.00000, 928.00000, 1.38702, 0.18921, 0.09155, -100.91250, 17.19250, -439393, 1839.00000, -219.00000, 931.00000, 1.26495, 0.55542, 0.21362, -100.91250, 17.19250, -439433, 1826.00000, -209.00000, 920.00000, 1.69220, -0.48218, -0.27466, -103.45399, 16.44500, -9479, 1826.00000, -224.00000, 927.00000, 1.57013, -0.42114, -0.33569, -103.00550, 18.38850, -9519, 1844.00000, -208.00000, 918.00000, 1.26495, 0.43335, 0.21362, -101.80950, 16.89350, -449559, 1829.00000, -208.00000, 920.00000, 1.69220, -0.60425, -0.33569, -102.40750, 17.49150, -9599, 1825.00000, -219.00000, 931.00000, 1.32599, 0.86060, 0.39673, -100.76300, 16.59450, -429639, 1832.00000, -210.00000, 930.00000, 1.57013, 0.00610, -0.09155, -100.76300, 16.59450, -49679, 1827.00000, -218.00000, 926.00000, 1.57013, -0.11597, -0.15259, -100.76300, 16.59450, -42.75700
9313, 1835.00000, -213.00000, 925.00000, 1.57013, -0.05493, -0.21362, -100.91250, 17.19250, -9353, 1825.00000, -223.00000, 928.00000, 1.38702, 0.18921, 0.09155, -100.91250, 17.19250, -439393, 1839.00000, -219.00000, 931.00000, 1.26495, 0.55542, 0.21362, -100.91250, 17.19250, -439433, 1826.00000, -209.00000, 920.00000, 1.69220, -0.48218, -0.27466, -103.45399, 16.44500, -9479, 1826.00000, -224.00000, 927.00000, 1.57013, -0.42114, -0.33569, -103.00550, 18.38850, -9519, 1844.00000, -208.00000, 918.00000, 1.26495, 0.43335, 0.21362, -101.80950, 16.89350, -449559, 1829.00000, -208.00000, 920.00000, 1.69220, -0.60425, -0.33569, -102.40750, 17.49150, -9599, 1825.00000, -219.00000, 931.00000, 1.32599, 0.86060, 0.39673, -100.76300, 16.59450, -429639, 1832.00000, -210.00000, 930.00000, 1.57013, 0.00610, -0.09155, -100.76300, 16.59450, -49679, 1827.00000, -218.00000, 926.00000, 1.57013, -0.11597, -0.15259, -100.76300, 16.59450, -42.75700
9353, 1825.00000, -223.00000, 928.00000, 1.38702, 0.18921, 0.09155, -100.91250, 17.19250, -439393, 1839.00000, -219.00000, 931.00000, 1.26495, 0.55542, 0.21362, -100.91250, 17.19250, -439433, 1826.00000, -209.00000, 920.00000, 1.69220, -0.48218, -0.27466, -103.45399, 16.44500, -9479, 1826.00000, -224.00000, 927.00000, 1.57013, -0.42114, -0.33569, -103.00550, 18.38850, -9519, 1844.00000, -208.00000, 918.00000, 1.26495, 0.43335, 0.21362, -101.80950, 16.89350, -449559, 1829.00000, -208.00000, 920.00000, 1.69220, -0.60425, -0.33569, -102.40750, 17.49150, -9599, 1825.00000, -219.00000, 931.00000, 1.32599, 0.86060, 0.39673, -100.76300, 16.59450, -429639, 1832.00000, -210.00000, 930.00000, 1.57013, 0.00610, -0.09155, -100.76300, 16.59450, -49679, 1827.00000, -218.00000, 926.00000, 1.57013, -0.11597, -0.15259, -100.76300, 16.59450, -42.75700
9393, 1839.00000, -219.00000, 931.00000, 1.26495, 0.55542, 0.21362, -100.91250, 17.19250, -439433, 1826.00000, -209.00000, 920.00000, 1.69220, -0.48218, -0.27466, -103.45399, 16.44500, -9479, 1826.00000, -224.00000, 927.00000, 1.57013, -0.42114, -0.33569, -103.00550, 18.38850, -9519, 1844.00000, -208.00000, 918.00000, 1.26495, 0.43335, 0.21362, -101.80950, 16.89350, -449559, 1829.00000, -208.00000, 920.00000, 1.69220, -0.60425, -0.33569, -102.40750, 17.49150, -9599, 1825.00000, -219.00000, 931.00000, 1.32599, 0.86060, 0.39673, -100.76300, 16.59450, -429639, 1832.00000, -210.00000, 930.00000, 1.57013, 0.00610, -0.09155, -100.76300, 16.59450, -49679, 1827.00000, -218.00000, 926.00000, 1.57013, -0.11597, -0.15259, -100.76300, 16.59450, -42.75700
9433, 1826.00000, -209.00000, 920.00000, 1.69220, -0.48218, -0.27466, -103.45399, 16.44500, -9479, 1826.00000, -224.00000, 927.00000, 1.57013, -0.42114, -0.33569, -103.00550, 18.38850, -9519, 1844.00000, -208.00000, 918.00000, 1.26495, 0.43335, 0.21362, -101.80950, 16.89350, -449559, 1829.00000, -208.00000, 920.00000, 1.69220, -0.60425, -0.33569, -102.40750, 17.49150, -9599, 1825.00000, -219.00000, 931.00000, 1.32599, 0.86060, 0.39673, -100.76300, 16.59450, -429639, 1832.00000, -210.00000, 930.00000, 1.57013, 0.00610, -0.09155, -100.76300, 16.59450, -49679, 1827.00000, -218.00000, 926.00000, 1.57013, -0.11597, -0.15259, -100.76300, 16.59450, -42.75700
9479, 1826.00000, -224.00000, 927.00000, 1.57013, -0.42114, -0.33569, -103.00550, 18.38850, -9519, 1844.00000, -208.00000, 918.00000, 1.26495, 0.43335, 0.21362, -101.80950, 16.89350, -449559, 1829.00000, -208.00000, 920.00000, 1.69220, -0.60425, -0.33569, -102.40750, 17.49150, -9599, 1825.00000, -219.00000, 931.00000, 1.32599, 0.86060, 0.39673, -100.76300, 16.59450, -429639, 1832.00000, -210.00000, 930.00000, 1.57013, 0.00610, -0.09155, -100.76300, 16.59450, -49679, 1827.00000, -218.00000, 926.00000, 1.57013, -0.11597, -0.15259, -100.76300, 16.59450, -42.75700
9519, 1844.00000, -208.00000, 918.00000, 1.26495, 0.43335, 0.21362, -101.80950, 16.89350, -449559, 1829.00000, -208.00000, 920.00000, 1.69220, -0.60425, -0.33569, -102.40750, 17.49150, -9599, 1825.00000, -219.00000, 931.00000, 1.32599, 0.86060, 0.39673, -100.76300, 16.59450, -429639, 1832.00000, -210.00000, 930.00000, 1.57013, 0.00610, -0.09155, -100.76300, 16.59450, -49679, 1827.00000, -218.00000, 926.00000, 1.57013, -0.11597, -0.15259, -100.76300, 16.59450, -42.75700
9559, 1829.00000, -208.00000, 920.00000, 1.69220, -0.60425, -0.33569, -102.40750, 17.49150, -9599, 1825.00000, -219.00000, 931.00000, 1.32599, 0.86060, 0.39673, -100.76300, 16.59450, -429639, 1832.00000, -210.00000, 930.00000, 1.57013, 0.00610, -0.09155, -100.76300, 16.59450, -49679, 1827.00000, -218.00000, 926.00000, 1.57013, -0.11597, -0.15259, -100.76300, 16.59450, -42.75700
9599, 1825.00000, -219.00000, 931.00000, 1.32599, 0.86060, 0.39673, -100.76300, 16.59450, -429639, 1832.00000, -210.00000, 930.00000, 1.57013, 0.00610, -0.09155, -100.76300, 16.59450, -49679, 1827.00000, -218.00000, 926.00000, 1.57013, -0.11597, -0.15259, -100.76300, 16.59450, -42.75700
9639, 1832.00000, -210.00000, 930.00000, 1.57013, 0.00610, -0.09155, -100.76300, 16.59450, -49679, 1827.00000, -218.00000, 926.00000, 1.57013, -0.11597, -0.15259, -100.76300, 16.59450, -42.75700
9679, 1827.00000, -218.00000, 926.00000, 1.57013, -0.11597, -0.15259, -100.76300, 16.59450, -42.75700
9782, 1828.00000, -212.00000, 927.00000, 1.32599, 0.55542, 0.21362, -101.51050, 21.07950, -469822, 1828.00000, -216.00000, 926.00000, 1.26495, 0.31128, 0.15259, -101.51050, 21.07950, -469862, 1831.00000, -217.00000, 926.00000, 1.38702, -0.05493, 0.03052, -102.55700, 19.13600, -49902, 1829.00000, -213.00000, 928.00000, 1.44806, -0.05493, -0.09155, -101.36100, 18.68750, -9942, 1830.00000, -214.00000, 926.00000, 1.50909, 0.31128, 0.03052, -101.95900, 17.49150, -439982, 1832.00000, -212.00000, 921.00000, 1.57013, 0.06714, -0.03052, -101.95900, 17.49150, -410022, 1831.00000, -215.00000, 923.00000, 1.44806, 0.25024, 0.03052, -101.95900, 19.43500, -410062, 1833.00000, -216.00000, 924.00000, 1.38702, 0.18921, 0.03052, -101.95900, 19.43500, -410102, 1830.00000, -219.00000, 928.00000, 1.44806, -0.05493, -0.03052, -102.25800, 16.89350, 10142, 1830.00000, -219.00000, 927.00000, 1.44806, -0.05493, -0.03052, -101.66000, 18.68750, 10182, 1835.00000, -212.00000, 918.00000, 1.44806, -0.05493, 0.03052, -101.66000, 18.68750, -10222, 1829.00000, -211.00000, 922.00000, 1.44806, 0.12817, 0.03052, -103.30450, 16.59450, -410262, 1830.00000, -211.00000, 926.00000, 1.50909, 0.31128, 0.09155, -101.06200, 17.64100, -410308, 1824.00000, -215.00000, 932.00000, 1.44806, 0.00610, 0.03052, -101.80950, 18.08950, -410348, 1826.00000, -214.00000, 926.00000, 1.57013, 0.06714, -0.09155, -101.95900, 17.94000, -10388, 1836.00000, -213.00000, 917.00000, 1.57013, 0.00610, -0.03052, -101.95900, 17.94000, -10428, 1831.00000, -216.00000, 918.00000, 1.44806, 0.31128, 0.03052, -101.95900, 17.94000, -410468, 1829.00000, -216.00000, 923.00000, 1.44806, 0.25024, 0.09155, -102.40750, 17.19250, -410508, 1829.00000, -217.00000, 926.00000, 1.44806, -0.05493, -0.09155, -101.95900, 17.94000, 10558, 1833.00000, -212.00000, 925.00000, 1.50909, 0.18921, 0.03052, -103.15500, 17.19250, -410598, 1833.00000, -213.00000, 921.00000, 1.50909, 0.12817, -0.09155, -101.36100, 18.98650, -10638, 1836.00000, -216.00000, 924.00000, 1.50909, 0.12817, 0.03052, -101.06200, 17.64100, -410678, 1834.00000, -215.00000, 922.00000, 1.44806, 0.18921, 0.09155, -102.70650, 18.68750, -410718, 1830.00000, -210.00000, 922.00000, 1.44806, 0.00610, 0.03052, -102.70650, 18.68750, -410758, 1831.00000, -212.00000, 926.00000, 1.44806, 0.18921, 0.09155, -102.70650, 18.68750, -43.65400
9822, 1828.00000, -216.00000, 926.00000, 1.26495, 0.31128, 0.15259, -101.51050, 21.07950, -469862, 1831.00000, -217.00000, 926.00000, 1.38702, -0.05493, 0.03052, -102.55700, 19.13600, -49902, 1829.00000, -213.00000, 928.00000, 1.44806, -0.05493, -0.09155, -101.36100, 18.68750, -9942, 1830.00000, -214.00000, 926.00000, 1.50909, 0.31128, 0.03052, -101.95900, 17.49150, -439982, 1832.00000, -212.00000, 921.00000, 1.57013, 0.06714, -0.03052, -101.95900, 17.49150, -410022, 1831.00000, -215.00000, 923.00000, 1.44806, 0.25024, 0.03052, -101.95900, 19.43500, -410062, 1833.00000, -216.00000, 924.00000, 1.38702, 0.18921, 0.03052, -101.95900, 19.43500, -410102, 1830.00000, -219.00000, 928.00000, 1.44806, -0.05493, -0.03052, -102.25800, 16.89350, 10142, 1830.00000, -219.00000, 927.00000, 1.44806, -0.05493, -0.03052, -101.66000, 18.68750, 10182, 1835.00000, -212.00000, 918.00000, 1.44806, -0.05493, 0.03052, -101.66000, 18.68750, -10222, 1829.00000, -211.00000, 922.00000, 1.44806, 0.12817, 0.03052, -103.30450, 16.59450, -410262, 1830.00000, -211.00000, 926.00000, 1.50909, 0.31128, 0.09155, -101.06200, 17.64100, -410308, 1824.00000, -215.00000, 932.00000, 1.44806, 0.00610, 0.03052, -101.80950, 18.08950, -410348, 1826.00000, -214.00000, 926.00000, 1.57013, 0.06714, -0.09155, -101.95900, 17.94000, -10388, 1836.00000, -213.00000, 917.00000, 1.57013, 0.00610, -0.03052, -101.95900, 17.94000, -10428, 1831.00000, -216.00000, 918.00000, 1.44806, 0.31128, 0.03052, -101.95900, 17.94000, -410468, 1829.00000, -216.00000, 923.00000, 1.44806, 0.25024, 0.09155, -102.40750, 17.19250, -410508, 1829.00000, -217.00000, 926.00000, 1.44806, -0.05493, -0.09155, -101.95900, 17.94000, 10558, 1833.00000, -212.00000, 925.00000, 1.50909, 0.18921, 0.03052, -103.15500, 17.19250, -410598, 1833.00000, -213.00000, 921.00000, 1.50909, 0.12817, -0.09155, -101.36100, 18.98650, -10638, 1836.00000, -216.00000, 924.00000, 1.50909, 0.12817, 0.03052, -101.06200, 17.64100, -410678, 1834.00000, -215.00000, 922.00000, 1.44806, 0.18921, 0.09155, -102.70650, 18.68750, -410718, 1830.00000, -210.00000, 922.00000, 1.44806, 0.00610, 0.03052, -102.70650, 18.68750, -410758, 1831.00000, -212.00000, 926.00000, 1.44806, 0.18921, 0.09155, -102.70650, 18.68750, -43.65400
9862, 1831.00000, -217.00000, 926.00000, 1.38702, -0.05493, 0.03052, -102.55700, 19.13600, -49902, 1829.00000, -213.00000, 928.00000, 1.44806, -0.05493, -0.09155, -101.36100, 18.68750, -9942, 1830.00000, -214.00000, 926.00000, 1.50909, 0.31128, 0.03052, -101.95900, 17.49150, -439982, 1832.00000, -212.00000, 921.00000, 1.57013, 0.06714, -0.03052, -101.95900, 17.49150, -410022, 1831.00000, -215.00000, 923.00000, 1.44806, 0.25024, 0.03052, -101.95900, 19.43500, -410062, 1833.00000, -216.00000, 924.00000, 1.38702, 0.18921, 0.03052, -101.95900, 19.43500, -410102, 1830.00000, -219.00000, 928.00000, 1.44806, -0.05493, -0.03052, -102.25800, 16.89350, 10142, 1830.00000, -219.00000, 927.00000, 1.44806, -0.05493, -0.03052, -101.66000, 18.68750, 10182, 1835.00000, -212.00000, 918.00000, 1.44806, -0.05493, 0.03052, -101.66000, 18.68750, -10222, 1829.00000, -211.00000, 922.00000, 1.44806, 0.12817, 0.03052, -103.30450, 16.59450, -410262, 1830.00000, -211.00000, 926.00000, 1.50909, 0.31128, 0.09155, -101.06200, 17.64100, -410308, 1824.00000, -215.00000, 932.00000, 1.44806, 0.00610, 0.03052, -101.80950, 18.08950, -410348, 1826.00000, -214.00000, 926.00000, 1.57013, 0.06714, -0.09155, -101.95900, 17.94000, -10388, 1836.00000, -213.00000, 917.00000, 1.57013, 0.00610, -0.03052, -101.95900, 17.94000, -10428, 1831.00000, -216.00000, 918.00000, 1.44806, 0.31128, 0.03052, -101.95900, 17.94000, -410468, 1829.00000, -216.00000, 923.00000, 1.44806, 0.25024, 0.09155, -102.40750, 17.19250, -410508, 1829.00000, -217.00000, 926.00000, 1.44806, -0.05493, -0.09155, -101.95900, 17.94000, 10558, 1833.00000, -212.00000, 925.00000, 1.50909, 0.18921, 0.03052, -103.15500, 17.19250, -410598, 1833.00000, -213.00000, 921.00000, 1.50909, 0.12817, -0.09155, -101.36100, 18.98650, -10638, 1836.00000, -216.00000, 924.00000, 1.50909, 0.12817, 0.03052, -101.06200, 17.64100, -410678, 1834.00000, -215.00000, 922.00000, 1.44806, 0.18921, 0.09155, -102.70650, 18.68750, -410718, 1830.00000, -210.00000, 922.00000, 1.44806, 0.00610, 0.03052, -102.70650, 18.68750, -410758, 1831.00000, -212.00000, 926.00000, 1.44806, 0.18921, 0.09155, -102.70650, 18.68750, -43.65400
9902, 1829.00000, -213.00000, 928.00000, 1.44806, -0.05493, -0.09155, -101.36100, 18.68750, -9942, 1830.00000, -214.00000, 926.00000, 1.50909, 0.31128, 0.03052, -101.95900, 17.49150, -439982, 1832.00000, -212.00000, 921.00000, 1.57013, 0.06714, -0.03052, -101.95900, 17.49150, -410022, 1831.00000, -215.00000, 923.00000, 1.44806, 0.25024, 0.03052, -101.95900, 19.43500, -410062, 1833.00000, -216.00000, 924.00000, 1.38702, 0.18921, 0.03052, -101.95900, 19.43500, -410102, 1830.00000, -219.00000, 928.00000, 1.44806, -0.05493, -0.03052, -102.25800, 16.89350, 10142, 1830.00000, -219.00000, 927.00000, 1.44806, -0.05493, -0.03052, -101.66000, 18.68750, 10182, 1835.00000, -212.00000, 918.00000, 1.44806, -0.05493, 0.03052, -101.66000, 18.68750, -10222, 1829.00000, -211.00000, 922.00000, 1.44806, 0.12817, 0.03052, -103.30450, 16.59450, -410262, 1830.00000, -211.00000, 926.00000, 1.50909, 0.31128, 0.09155, -101.06200, 17.64100, -410308, 1824.00000, -215.00000, 932.00000, 1.44806, 0.00610, 0.03052, -101.80950, 18.08950, -410348, 1826.00000, -214.00000, 926.00000, 1.57013, 0.06714, -0.09155, -101.95900, 17.94000, -10388, 1836.00000, -213.00000, 917.00000, 1.57013, 0.00610, -0.03052, -101.95900, 17.94000, -10428, 1831.00000, -216.00000, 918.00000, 1.44806, 0.31128, 0.03052, -101.95900, 17.94000, -410468, 1829.00000, -216.00000, 923.00000, 1.44806, 0.25024, 0.09155, -102.40750, 17.19250, -410508, 1829.00000, -217.00000, 926.00000, 1.44806, -0.05493, -0.09155, -101.95900, 17.94000, 10558, 1833.00000, -212.00000, 925.00000, 1.50909, 0.18921, 0.03052, -103.15500, 17.19250, -410598, 1833.00000, -213.00000, 921.00000, 1.50909, 0.12817, -0.09155, -101.36100, 18.98650, -10638, 1836.00000, -216.00000, 924.00000, 1.50909, 0.12817, 0.03052, -101.06200, 17.64100, -410678, 1834.00000, -215.00000, 922.00000, 1.44806, 0.18921, 0.09155, -102.70650, 18.68750, -410718, 1830.00000, -210.00000, 922.00000, 1.44806, 0.00610, 0.03052, -102.70650, 18.68750, -410758, 1831.00000, -212.00000, 926.00000, 1.44806, 0.18921, 0.09155, -102.70650, 18.68750, -43.65400
9942, 1830.00000, -214.00000, 926.00000, 1.50909, 0.31128, 0.03052, -101.95900, 17.49150, -439982, 1832.00000, -212.00000, 921.00000, 1.57013, 0.06714, -0.03052, -101.95900, 17.49150, -410022, 1831.00000, -215.00000, 923.00000, 1.44806, 0.25024, 0.03052, -101.95900, 19.43500, -410062, 1833.00000, -216.00000, 924.00000, 1.38702, 0.18921, 0.03052, -101.95900, 19.43500, -410102, 1830.00000, -219.00000, 928.00000, 1.44806, -0.05493, -0.03052, -102.25800, 16.89350, 10142, 1830.00000, -219.00000, 927.00000, 1.44806, -0.05493, -0.03052, -101.66000, 18.68750, 10182, 1835.00000, -212.00000, 918.00000, 1.44806, -0.05493, 0.03052, -101.66000, 18.68750, -10222, 1829.00000, -211.00000, 922.00000, 1.44806, 0.12817, 0.03052, -103.30450, 16.59450, -410262, 1830.00000, -211.00000, 926.00000, 1.50909, 0.31128, 0.09155, -101.06200, 17.64100, -410308, 1824.00000, -215.00000, 932.00000, 1.44806, 0.00610, 0.03052, -101.80950, 18.08950, -410348, 1826.00000, -214.00000, 926.00000, 1.57013, 0.06714, -0.09155, -101.95900, 17.94000, -10388, 1836.00000, -213.00000, 917.00000, 1.57013, 0.00610, -0.03052, -101.95900, 17.94000, -10428, 1831.00000, -216.00000, 918.00000, 1.44806, 0.31128, 0.03052, -101.95900, 17.94000, -410468, 1829.00000, -216.00000, 923.00000, 1.44806, 0.25024, 0.09155, -102.40750, 17.19250, -410508, 1829.00000, -217.00000, 926.00000, 1.44806, -0.05493, -0.09155, -101.95900, 17.94000, 10558, 1833.00000, -212.00000, 925.00000, 1.50909, 0.18921, 0.03052, -103.15500, 17.19250, -410598, 1833.00000, -213.00000, 921.00000, 1.50909, 0.12817, -0.09155, -101.36100, 18.98650, -10638, 1836.00000, -216.00000, 924.00000, 1.50909, 0.12817, 0.03052, -101.06200, 17.64100, -410678, 1834.00000, -215.00000, 922.00000, 1.44806, 0.18921, 0.09155, -102.70650, 18.68750, -410718, 1830.00000, -210.00000, 922.00000, 1.44806, 0.00610, 0.03052, -102.70650, 18.68750, -410758, 1831.00000, -212.00000, 926.00000, 1.44806, 0.18921, 0.09155, -102.70650, 18.68750, -43.65400
9982, 1832.00000, -212.00000, 921.00000, 1.57013, 0.06714, -0.03052, -101.95900, 17.49150, -410022, 1831.00000, -215.00000, 923.00000, 1.44806, 0.25024, 0.03052, -101.95900, 19.43500, -410062, 1833.00000, -216.00000, 924.00000, 1.38702, 0.18921, 0.03052, -101.95900, 19.43500, -410102, 1830.00000, -219.00000, 928.00000, 1.44806, -0.05493, -0.03052, -102.25800, 16.89350, 10142, 1830.00000, -219.00000, 927.00000, 1.44806, -0.05493, -0.03052, -101.66000, 18.68750, 10182, 1835.00000, -212.00000, 918.00000, 1.44806, -0.05493, 0.03052, -101.66000, 18.68750, -10222, 1829.00000, -211.00000, 922.00000, 1.44806, 0.12817, 0.03052, -103.30450, 16.59450, -410262, 1830.00000, -211.00000, 926.00000, 1.50909, 0.31128, 0.09155, -101.06200, 17.64100, -410308, 1824.00000, -215.00000, 932.00000, 1.44806, 0.00610, 0.03052, -101.80950, 18.08950, -410348, 1826.00000, -214.00000, 926.00000, 1.57013, 0.06714, -0.09155, -101.95900, 17.94000, -10388, 1836.00000, -213.00000, 917.00000, 1.57013, 0.00610, -0.03052, -101.95900, 17.94000, -10428, 1831.00000, -216.00000, 918.00000, 1.44806, 0.31128, 0.03052, -101.95900, 17.94000, -410468, 1829.00000, -216.00000, 923.00000, 1.44806, 0.25024, 0.09155, -102.40750, 17.19250, -410508, 1829.00000, -217.00000, 926.00000, 1.44806, -0.05493, -0.09155, -101.95900, 17.94000, 10558, 1833.00000, -212.00000, 925.00000, 1.50909, 0.18921, 0.03052, -103.15500, 17.19250, -410598, 1833.00000, -213.00000, 921.00000, 1.50909, 0.12817, -0.09155, -101.36100, 18.98650, -10638, 1836.00000, -216.00000, 924.00000, 1.50909, 0.12817, 0.03052, -101.06200, 17.64100, -410678, 1834.00000, -215.00000, 922.00000, 1.44806, 0.18921, 0.09155, -102.70650, 18.68750, -410718, 1830.00000, -210.00000, 922.00000, 1.44806, 0.00610, 0.03052, -102.70650, 18.68750, -410758, 1831.00000, -212.00000, 926.00000, 1.44806, 0.18921, 0.09155, -102.70650, 18.68750, -43.65400
10022, 1831.00000, -215.00000, 923.00000, 1.44806, 0.25024, 0.03052, -101.95900, 19.43500, -410062, 1833.00000, -216.00000, 924.00000, 1.38702, 0.18921, 0.03052, -101.95900, 19.43500, -410102, 1830.00000, -219.00000, 928.00000, 1.44806, -0.05493, -0.03052, -102.25800, 16.89350, 10142, 1830.00000, -219.00000, 927.00000, 1.44806, -0.05493, -0.03052, -101.66000, 18.68750, 10182, 1835.00000, -212.00000, 918.00000, 1.44806, -0.05493, 0.03052, -101.66000, 18.68750, -10222, 1829.00000, -211.00000, 922.00000, 1.44806, 0.12817, 0.03052, -103.30450, 16.59450, -410262, 1830.00000, -211.00000, 926.00000, 1.50909, 0.31128, 0.09155, -101.06200, 17.64100, -410308, 1824.00000, -215.00000, 932.00000, 1.44806, 0.00610, 0.03052, -101.80950, 18.08950, -410348, 1826.00000, -214.00000, 926.00000, 1.57013, 0.06714, -0.09155, -101.95900, 17.94000, -10388, 1836.00000, -213.00000, 917.00000, 1.57013, 0.00610, -0.03052, -101.95900, 17.94000, -10428, 1831.00000, -216.00000, 918.00000, 1.44806, 0.31128, 0.03052, -101.95900, 17.94000, -410468, 1829.00000, -216.00000, 923.00000, 1.44806, 0.25024, 0.09155, -102.40750, 17.19250, -410508, 1829.00000, -217.00000, 926.00000, 1.44806, -0.05493, -0.09155, -101.95900, 17.94000, 10558, 1833.00000, -212.00000, 925.00000, 1.50909, 0.18921, 0.03052, -103.15500, 17.19250, -410598, 1833.00000, -213.00000, 921.00000, 1.50909, 0.12817, -0.09155, -101.36100, 18.98650, -10638, 1836.00000, -216.00000, 924.00000, 1.50909, 0.12817, 0.03052, -101.06200, 17.64100, -410678, 1834.00000, -215.00000, 922.00000, 1.44806, 0.18921, 0.09155, -102.70650, 18.68750, -410718, 1830.00000, -210.00000, 922.00000, 1.44806, 0.00610, 0.03052, -102.70650, 18.68750, -410758, 1831.00000, -212.00000, 926.00000, 1.44806, 0.18921, 0.09155, -102.70650, 18.68750, -43.65400
10062, 1833.00000, -216.00000, 924.00000, 1.38702, 0.18921, 0.03052, -101.95900, 19.43500, -410102, 1830.00000, -219.00000, 928.00000, 1.44806, -0.05493, -0.03052, -102.25800, 16.89350, 10142, 1830.00000, -219.00000, 927.00000, 1.44806, -0.05493, -0.03052, -101.66000, 18.68750, 10182, 1835.00000, -212.00000, 918.00000, 1.44806, -0.05493, 0.03052, -101.66000, 18.68750, -10222, 1829.00000, -211.00000, 922.00000, 1.44806, 0.12817, 0.03052, -103.30450, 16.59450, -410262, 1830.00000, -211.00000, 926.00000, 1.50909, 0.31128, 0.09155, -101.06200, 17.64100, -410308, 1824.00000, -215.00000, 932.00000, 1.44806, 0.00610, 0.03052, -101.80950, 18.08950, -410348, 1826.00000, -214.00000, 926.00000, 1.57013, 0.06714, -0.09155, -101.95900, 17.94000, -10388, 1836.00000, -213.00000, 917.00000, 1.57013, 0.00610, -0.03052, -101.95900, 17.94000, -10428, 1831.00000, -216.00000, 918.00000, 1.44806, 0.31128, 0.03052, -101.95900, 17.94000, -410468, 1829.00000, -216.00000, 923.00000, 1.44806, 0.25024, 0.09155, -102.40750, 17.19250, -410508, 1829.00000, -217.00000, 926.00000, 1.44806, -0.05493, -0.09155, -101.95900, 17.94000, 10558, 1833.00000, -212.00000, 925.00000, 1.50909, 0.18921, 0.03052, -103.15500, 17.19250, -410598, 1833.00000, -213.00000, 921.00000, 1.50909, 0.12817, -0.09155, -101.36100, 18.98650, -10638, 1836.00000, -216.00000, 924.00000, 1.50909, 0.12817, 0.03052, -101.06200, 17.64100, -410678, 1834.00000, -215.00000, 922.00000, 1.44806, 0.18921, 0.09155, -102.70650, 18.68750, -410718, 1830.00000, -210.00000, 922.00000, 1.44806, 0.00610, 0.03052, -102.70650, 18.68750, -410758, 1831.00000, -212.00000, 926.00000, 1.44806, 0.18921, 0.09155, -102.70650, 18.68750, -43.65400
10102, 1830.00000, -219.00000, 928.00000, 1.44806, -0.05493, -0.03052, -102.25800, 16.89350, 10142, 1830.00000, -219.00000, 927.00000, 1.44806, -0.05493, -0.03052, -101.66000, 18.68750, 10182, 1835.00000, -212.00000, 918.00000, 1.44806, -0.05493, 0.03052, -101.66000, 18.68750, -10222, 1829.00000, -211.00000, 922.00000, 1.44806, 0.12817, 0.03052, -103.30450, 16.59450, -410262, 1830.00000, -211.00000, 926.00000, 1.50909, 0.31128, 0.09155, -101.06200, 17.64100, -410308, 1824.00000, -215.00000, 932.00000, 1.44806, 0.00610, 0.03052, -101.80950, 18.08950, -410348, 1826.00000, -214.00000, 926.00000, 1.57013, 0.06714, -0.09155, -101.95900, 17.94000, -10388, 1836.00000, -213.00000, 917.00000, 1.57013, 0.00610, -0.03052, -101.95900, 17.94000, -10428, 1831.00000, -216.00000, 918.00000, 1.44806, 0.31128, 0.03052, -101.95900, 17.94000, -410468, 1829.00000, -216.00000, 923.00000, 1.44806, 0.25024, 0.09155, -102.40750, 17.19250, -410508, 1829.00000, -217.00000, 926.00000, 1.44806, -0.05493, -0.09155, -101.95900, 17.94000, 10558, 1833.00000, -212.00000, 925.00000, 1.50909, 0.18921, 0.03052, -103.15500, 17.19250, -410598, 1833.00000, -213.00000, 921.00000, 1.50909, 0.12817, -0.09155, -101.36100, 18.98650, -10638, 1836.00000, -216.00000, 924.00000, 1.50909, 0.12817, 0.03052, -101.06200, 17.64100, -410678, 1834.00000, -215.00000, 922.00000, 1.44806, 0.18921, 0.09155, -102.70650, 18.68750, -410718, 1830.00000, -210.00000, 922.00000, 1.44806, 0.00610, 0.03052, -102.70650, 18.68750, -410758, 1831.00000, -212.00000, 926.00000, 1.44806, 0.18921, 0.09155, -102.70650, 18.68750, -43.65400
10142, 1830.00000, -219.00000, 927.00000, 1.44806, -0.05493, -0.03052, -101.66000, 18.68750, 10182, 1835.00000, -212.00000, 918.00000, 1.44806, -0.05493, 0.03052, -101.66000, 18.68750, -10222, 1829.00000, -211.00000, 922.00000, 1.44806, 0.12817, 0.03052, -103.30450, 16.59450, -410262, 1830.00000, -211.00000, 926.00000, 1.50909, 0.31128, 0.09155, -101.06200, 17.64100, -410308, 1824.00000, -215.00000, 932.00000, 1.44806, 0.00610, 0.03052, -101.80950, 18.08950, -410348, 1826.00000, -214.00000, 926.00000, 1.57013, 0.06714, -0.09155, -101.95900, 17.94000, -10388, 1836.00000, -213.00000, 917.00000, 1.57013, 0.00610, -0.03052, -101.95900, 17.94000, -10428, 1831.00000, -216.00000, 918.00000, 1.44806, 0.31128, 0.03052, -101.95900, 17.94000, -410468, 1829.00000, -216.00000, 923.00000, 1.44806, 0.25024, 0.09155, -102.40750, 17.19250, -410508, 1829.00000, -217.00000, 926.00000, 1.44806, -0.05493, -0.09155, -101.95900, 17.94000, 10558, 1833.00000, -212.00000, 925.00000, 1.50909, 0.18921, 0.03052, -103.15500, 17.19250, -410598, 1833.00000, -213.00000, 921.00000, 1.50909, 0.12817, -0.09155, -101.36100, 18.98650, -10638, 1836.00000, -216.00000, 924.00000, 1.50909, 0.12817, 0.03052, -101.06200, 17.64100, -410678, 1834.00000, -215.00000, 922.00000, 1.44806, 0.18921, 0.09155, -102.70650, 18.68750, -410718, 1830.00000, -210.00000, 922.00000, 1.44806, 0.00610, 0.03052, -102.70650, 18.68750, -410758, 1831.00000, -212.00000, 926.00000, 1.44806, 0.18921, 0.09155, -102.70650, 18.68750, -43.65400
10182, 1835.00000, -212.00000, 918.00000, 1.44806, -0.05493, 0.03052, -101.66000, 18.68750, -10222, 1829.00000, -211.00000, 922.00000, 1.44806, 0.12817, 0.03052, -103.30450, 16.59450, -410262, 1830.00000, -211.00000, 926.00000, 1.50909, 0.31128, 0.09155, -101.06200, 17.64100, -410308, 1824.00000, -215.00000, 932.00000, 1.44806, 0.00610, 0.03052, -101.80950, 18.08950, -410348, 1826.00000, -214.00000, 926.00000, 1.57013, 0.06714, -0.09155, -101.95900, 17.94000, -10388, 1836.00000, -213.00000, 917.00000, 1.57013, 0.00610, -0.03052, -101.95900, 17.94000, -10428, 1831.00000, -216.00000, 918.00000, 1.44806, 0.31128, 0.03052, -101.95900, 17.94000, -410468, 1829.00000, -216.00000, 923.00000, 1.44806, 0.25024, 0.09155, -102.40750, 17.19250, -410508, 1829.00000, -217.00000, 926.00000, 1.44806, -0.05493, -0.09155, -101.95900, 17.94000, 10558, 1833.00000, -212.00000, 925.00000, 1.50909, 0.18921, 0.03052, -103.15500, 17.19250, -410598, 1833.00000, -213.00000, 921.00000, 1.50909, 0.12817, -0.09155, -101.36100, 18.98650, -10638, 1836.00000, -216.00000, 924.00000, 1.50909, 0.12817, 0.03052, -101.06200, 17.64100, -410678, 1834.00000, -215.00000, 922.00000, 1.44806, 0.18921, 0.09155, -102.70650, 18.68750, -410718, 1830.00000, -210.00000, 922.00000, 1.44806, 0.00610, 0.03052, -102.70650, 18.68750, -410758, 1831.00000, -212.00000, 926.00000, 1.44806, 0.18921, 0.09155, -102.70650, 18.68750, -43.65400
10222, 1829.00000, -211.00000, 922.00000, 1.44806, 0.12817, 0.03052, -103.30450, 16.59450, -410262, 1830.00000, -211.00000, 926.00000, 1.50909, 0.31128, 0.09155, -101.06200, 17.64100, -410308, 1824.00000, -215.00000, 932.00000, 1.44806, 0.00610, 0.03052, -101.80950, 18.08950, -410348, 1826.00000, -214.00000, 926.00000, 1.57013, 0.06714, -0.09155, -101.95900, 17.94000, -10388, 1836.00000, -213.00000, 917.00000, 1.57013, 0.00610, -0.03052, -101.95900, 17.94000, -10428, 1831.00000, -216.00000, 918.00000, 1.44806, 0.31128, 0.03052, -101.95900, 17.94000, -410468, 1829.00000, -216.00000, 923.00000, 1.44806, 0.25024, 0.09155, -102.40750, 17.19250, -410508, 1829.00000, -217.00000, 926.00000, 1.44806, -0.05493, -0.09155, -101.95900, 17.94000, 10558, 1833.00000, -212.00000, 925.00000, 1.50909, 0.18921, 0.03052, -103.15500, 17.19250, -410598, 1833.00000, -213.00000, 921.00000, 1.50909, 0.12817, -0.09155, -101.36100, 18.98650, -10638, 1836.00000, -216.00000, 924.00000, 1.50909, 0.12817, 0.03052, -101.06200, 17.64100, -410678, 1834.00000, -215.00000, 922.00000, 1.44806, 0.18921, 0.09155, -102.70650, 18.68750, -410718, 1830.00000, -210.00000, 922.00000, 1.44806, 0.00610, 0.03052, -102.70650, 18.68750, -410758, 1831.00000, -212.00000, 926.00000, 1.44806, 0.18921, 0.09155, -102.70650, 18.68750, -43.65400
10262, 1830.00000, -211.00000, 926.00000, 1.50909, 0.31128, 0.09155, -101.06200, 17.64100, -410308, 1824.00000, -215.00000, 932.00000, 1.44806, 0.00610, 0.03052, -101.80950, 18.08950, -410348, 1826.00000, -214.00000, 926.00000, 1.57013, 0.06714, -0.09155, -101.95900, 17.94000, -10388, 1836.00000, -213.00000, 917.00000, 1.57013, 0.00610, -0.03052, -101.95900, 17.94000, -10428, 1831.00000, -216.00000, 918.00000, 1.44806, 0.31128, 0.03052, -101.95900, 17.94000, -410468, 1829.00000, -216.00000, 923.00000, 1.44806, 0.25024, 0.09155, -102.40750, 17.19250, -410508, 1829.00000, -217.00000, 926.00000, 1.44806, -0.05493, -0.09155, -101.95900, 17.94000, 10558, 1833.00000, -212.00000, 925.00000, 1.50909, 0.18921, 0.03052, -103.15500, 17.19250, -410598, 1833.00000, -213.00000, 921.00000, 1.50909, 0.12817, -0.09155, -101.36100, 18.98650, -10638, 1836.00000, -216.00000, 924.00000, 1.50909, 0.12817, 0.03052, -101.06200, 17.64100, -410678, 1834.00000, -215.00000, 922.00000, 1.44806, 0.18921, 0.09155, -102.70650, 18.68750, -410718, 1830.00000, -210.00000, 922.00000, 1.44806, 0.00610, 0.03052, -102.70650, 18.68750, -410758, 1831.00000, -212.00000, 926.00000, 1.44806, 0.18921, 0.09155, -102.70650, 18.68750, -43.65400
10308, 1824.00000, -215.00000, 932.00000, 1.44806, 0.00610, 0.03052, -101.80950, 18.08950, -410348, 1826.00000, -214.00000, 926.00000, 1.57013, 0.06714, -0.09155, -101.95900, 17.94000, -10388, 1836.00000, -213.00000, 917.00000, 1.57013, 0.00610, -0.03052, -101.95900, 17.94000, -10428, 1831.00000, -216.00000, 918.00000, 1.44806, 0.31128, 0.03052, -101.95900, 17.94000, -410468, 1829.00000, -216.00000, 923.00000, 1.44806, 0.25024, 0.09155, -102.40750, 17.19250, -410508, 1829.00000, -217.00000, 926.00000, 1.44806, -0.05493, -0.09155, -101.95900, 17.94000, 10558, 1833.00000, -212.00000, 925.00000, 1.50909, 0.18921, 0.03052, -103.15500, 17.19250, -410598, 1833.00000, -213.00000, 921.00000, 1.50909, 0.12817, -0.09155, -101.36100, 18.98650, -10638, 1836.00000, -216.00000, 924.00000, 1.50909, 0.12817, 0.03052, -101.06200, 17.64100, -410678, 1834.00000, -215.00000, 922.00000, 1.44806, 0.18921, 0.09155, -102.70650, 18.68750, -410718, 1830.00000, -210.00000, 922.00000, 1.44806, 0.00610, 0.03052, -102.70650, 18.68750, -410758, 1831.00000, -212.00000, 926.00000, 1.44806, 0.18921, 0.09155, -102.70650, 18.68750, -43.65400
10348, 1826.00000, -214.00000, 926.00000, 1.57013, 0.06714, -0.09155, -101.95900, 17.94000, -10388, 1836.00000, -213.00000, 917.00000, 1.57013, 0.00610, -0.03052, -101.95900, 17.94000, -10428, 1831.00000, -216.00000, 918.00000, 1.44806, 0.31128, 0.03052, -101.95900, 17.94000, -410468, 1829.00000, -216.00000, 923.00000, 1.44806, 0.25024, 0.09155, -102.40750, 17.19250, -410508, 1829.00000, -217.00000, 926.00000, 1.44806, -0.05493, -0.09155, -101.95900, 17.94000, 10558, 1833.00000, -212.00000, 925.00000, 1.50909, 0.18921, 0.03052, -103.15500, 17.19250, -410598, 1833.00000, -213.00000, 921.00000, 1.50909, 0.12817, -0.09155, -101.36100, 18.98650, -10638, 1836.00000, -216.00000, 924.00000, 1.50909, 0.12817, 0.03052, -101.06200, 17.64100, -410678, 1834.00000, -215.00000, 922.00000, 1.44806, 0.18921, 0.09155, -102.70650, 18.68750, -410718, 1830.00000, -210.00000, 922.00000, 1.44806, 0.00610, 0.03052, -102.70650, 18.68750, -410758, 1831.00000, -212.00000, 926.00000, 1.44806, 0.18921, 0.09155, -102.70650, 18.68750, -43.65400
10388, 1836.00000, -213.00000, 917.00000, 1.57013, 0.00610, -0.03052, -101.95900, 17.94000, -10428, 1831.00000, -216.00000, 918.00000, 1.44806, 0.31128, 0.03052, -101.95900, 17.94000, -410468, 1829.00000, -216.00000, 923.00000, 1.44806, 0.25024, 0.09155, -102.40750, 17.19250, -410508, 1829.00000, -217.00000, 926.00000, 1.44806, -0.05493, -0.09155, -101.95900, 17.94000, 10558, 1833.00000, -212.00000, 925.00000, 1.50909, 0.18921, 0.03052, -103.15500, 17.19250, -410598, 1833.00000, -213.00000, 921.00000, 1.50909, 0.12817, -0.09155, -101.36100, 18.98650, -10638, 1836.00000, -216.00000, 924.00000, 1.50909, 0.12817, 0.03052, -101.06200, 17.64100, -410678, 1834.00000, -215.00000, 922.00000, 1.44806, 0.18921, 0.09155, -102.70650, 18.68750, -410718, 1830.00000, -210.00000, 922.00000, 1.44806, 0.00610, 0.03052, -102.70650, 18.68750, -410758, 1831.00000, -212.00000, 926.00000, 1.44806, 0.18921, 0.09155, -102.70650, 18.68750, -43.65400
10428, 1831.00000, -216.00000, 918.00000, 1.44806, 0.31128, 0.03052, -101.95900, 17.94000, -410468, 1829.00000, -216.00000, 923.00000, 1.44806, 0.25024, 0.09155, -102.40750, 17.19250, -410508, 1829.00000, -217.00000, 926.00000, 1.44806, -0.05493, -0.09155, -101.95900, 17.94000, 10558, 1833.00000, -212.00000, 925.00000, 1.50909, 0.18921, 0.03052, -103.15500, 17.19250, -410598, 1833.00000, -213.00000, 921.00000, 1.50909, 0.12817, -0.09155, -101.36100, 18.98650, -10638, 1836.00000, -216.00000, 924.00000, 1.50909, 0.12817, 0.03052, -101.06200, 17.64100, -410678, 1834.00000, -215.00000, 922.00000, 1.44806, 0.18921, 0.09155, -102.70650, 18.68750, -410718, 1830.00000, -210.00000, 922.00000, 1.44806, 0.00610, 0.03052, -102.70650, 18.68750, -410758, 1831.00000, -212.00000, 926.00000, 1.44806, 0.18921, 0.09155, -102.70650, 18.68750, -43.65400
10468, 1829.00000, -216.00000, 923.00000, 1.44806, 0.25024, 0.09155, -102.40750, 17.19250, -410508, 1829.00000, -217.00000, 926.00000, 1.44806, -0.05493, -0.09155, -101.95900, 17.94000, 10558, 1833.00000, -212.00000, 925.00000, 1.50909, 0.18921, 0.03052, -103.15500, 17.19250, -410598, 1833.00000, -213.00000, 921.00000, 1.50909, 0.12817, -0.09155, -101.36100, 18.98650, -10638, 1836.00000, -216.00000, 924.00000, 1.50909, 0.12817, 0.03052, -101.06200, 17.64100, -410678, 1834.00000, -215.00000, 922.00000, 1.44806, 0.18921, 0.09155, -102.70650, 18.68750, -410718, 1830.00000, -210.00000, 922.00000, 1.44806, 0.00610, 0.03052, -102.70650, 18.68750, -410758, 1831.00000, -212.00000, 926.00000, 1.44806, 0.18921, 0.09155, -102.70650, 18.68750, -43.65400
10508, 1829.00000, -217.00000, 926.00000, 1.44806, -0.05493, -0.09155, -101.95900, 17.94000, 10558, 1833.00000, -212.00000, 925.00000, 1.50909, 0.18921, 0.03052, -103.15500, 17.19250, -410598, 1833.00000, -213.00000, 921.00000, 1.50909, 0.12817, -0.09155, -101.36100, 18.98650, -10638, 1836.00000, -216.00000, 924.00000, 1.50909, 0.12817, 0.03052, -101.06200, 17.64100, -410678, 1834.00000, -215.00000, 922.00000, 1.44806, 0.18921, 0.09155, -102.70650, 18.68750, -410718, 1830.00000, -210.00000, 922.00000, 1.44806, 0.00610, 0.03052, -102.70650, 18.68750, -410758, 1831.00000, -212.00000, 926.00000, 1.44806, 0.18921, 0.09155, -102.70650, 18.68750, -43.65400
10558, 1833.00000, -212.00000, 925.00000, 1.50909, 0.18921, 0.03052, -103.15500, 17.19250, -410598, 1833.00000, -213.00000, 921.00000, 1.50909, 0.12817, -0.09155, -101.36100, 18.98650, -10638, 1836.00000, -216.00000, 924.00000, 1.50909, 0.12817, 0.03052, -101.06200, 17.64100, -410678, 1834.00000, -215.00000, 922.00000, 1.44806, 0.18921, 0.09155, -102.70650, 18.68750, -410718, 1830.00000, -210.00000, 922.00000, 1.44806, 0.00610, 0.03052, -102.70650, 18.68750, -410758, 1831.00000, -212.00000, 926.00000, 1.44806, 0.18921, 0.09155, -102.70650, 18.68750, -43.65400
10598, 1833.00000, -213.00000, 921.00000, 1.50909, 0.12817, -0.09155, -101.36100, 18.98650, -10638, 1836.00000, -216.00000, 924.00000, 1.50909, 0.12817, 0.03052, -101.06200, 17.64100, -410678, 1834.00000, -215.00000, 922.00000, 1.44806, 0.18921, 0.09155, -102.70650, 18.68750, -410718, 1830.00000, -210.00000, 922.00000, 1.44806, 0.00610, 0.03052, -102.70650, 18.68750, -410758, 1831.00000, -212.00000, 926.00000, 1.44806, 0.18921, 0.09155, -102.70650, 18.68750, -43.65400
10638, 1836.00000, -216.00000, 924.00000, 1.50909, 0.12817, 0.03052, -101.06200, 17.64100, -410678, 1834.00000, -215.00000, 922.00000, 1.44806, 0.18921, 0.09155, -102.70650, 18.68750, -410718, 1830.00000, -210.00000, 922.00000, 1.44806, 0.00610, 0.03052, -102.70650, 18.68750, -410758, 1831.00000, -212.00000, 926.00000, 1.44806, 0.18921, 0.09155, -102.70650, 18.68750, -43.65400
10678, 1834.00000, -215.00000, 922.00000, 1.44806, 0.18921, 0.09155, -102.70650, 18.68750, -410718, 1830.00000, -210.00000, 922.00000, 1.44806, 0.00610, 0.03052, -102.70650, 18.68750, -410758, 1831.00000, -212.00000, 926.00000, 1.44806, 0.18921, 0.09155, -102.70650, 18.68750, -43.65400
10718, 1830.00000, -210.00000, 922.00000, 1.44806, 0.00610, 0.03052, -102.70650, 18.68750, -410758, 1831.00000, -212.00000, 926.00000, 1.44806, 0.18921, 0.09155, -102.70650, 18.68750, -43.65400
10758, 1831.00000, -212.00000, 926.00000, 1.44806, 0.18921, 0.09155, -102.70650, 18.68750, -43.65400
10927, 1829.00000, -216.00000, 930.00000, 1.38702, 0.06714, 0.03052, -97.02550, 20.48150, -4810980, 1829.00000, -216.00000, 930.00000, 1.38702, 0.06714, 0.03052, -97.02550, 20.48150, -4811020, 1833.00000, -216.00000, 923.00000, 1.44806, -0.11597, -0.03052, -97.02550, 20.48150, -11060, 1828.00000, -215.00000, 918.00000, 1.38702, 0.06714, 0.03052, -100.91250, 16.74400, -411100, 1831.00000, -211.00000, 921.00000, 1.44806, -0.05493, -0.03052, -100.91250, 16.74400, 11140, 1827.00000, -214.00000, 926.00000, 1.38702, 0.31128, 0.03052, -100.91250, 16.74400, -411255, 1831.00000, -212.00000, 923.00000, 1.44806, -0.05493, -0.03052, -98.96900, 19.13600, -11295, 1832.00000, -212.00000, 923.00000, 1.38702, 0.06714, -0.03052, -104.05200, 18.83700, -11335, 1829.00000, -213.00000, 925.00000, 1.44806, 0.12817, -0.03052, -101.95900, 18.23900, -11375, 1832.00000, -217.00000, 924.00000, 1.57013, 0.12817, -0.09155, -100.91250, 17.49150, -11415, 1828.00000, -213.00000, 921.00000, 1.50909, 0.12817, 0.03052, -100.91250, 17.49150, -411531, 1831.00000, -209.00000, 924.00000, 1.50909, -0.11597, -0.03052, -98.22150, 20.33200, -11571, 1826.00000, -214.00000, 923.00000, 1.50909, 0.12817, 0.03052, -101.06200, 18.08950, -411611, 1830.00000, -214.00000, 919.00000, 1.38702, 0.18921, 0.03052, -101.06200, 18.08950, -411651, 1833.00000, -215.00000, 923.00000, 1.50909, 0.06714, -0.03052, -101.80950, 17.64100, -11729, 1834.00000, -213.00000, 920.00000, 1.38702, 0.06714, 0.03052, -97.62350, 21.22900, -4911769, 1832.00000, -214.00000, 929.00000, 1.38702, 0.00610, 0.03052, -100.76300, 17.34200, -411809, 1833.00000, -209.00000, 925.00000, 1.44806, 0.31128, 0.09155, -100.76300, 17.34200, -411849, 1831.00000, -211.00000, 923.00000, 1.63116, -0.17700, -0.21362, -100.76300, 17.34200, 11889, 1830.00000, -216.00000, 925.00000, 1.44806, 0.31128, 0.03052, -101.95900, 16.74400, -412030, 1834.00000, -212.00000, 927.00000, 1.44806, 0.00610, 0.03052, -98.22150, 19.13600, -4812070, 1833.00000, -214.00000, 926.00000, 1.38702, 0.18921, 0.09155, -100.76300, 18.38850, -412110, 1829.00000, -212.00000, 923.00000, 1.57013, -0.23804, -0.09155, -102.70650, 18.23900, 12150, 1830.00000, -212.00000, 921.00000, 1.44806, 0.18921, 0.03052, -102.70650, 18.23900, -412255, 1826.00000, -211.00000, 930.00000, 1.44806, 0.31128, 0.03052, -99.11850, 20.18250, -48.58750
10980, 1829.00000, -216.00000, 930.00000, 1.38702, 0.06714, 0.03052, -97.02550, 20.48150, -4811020, 1833.00000, -216.00000, 923.00000, 1.44806, -0.11597, -0.03052, -97.02550, 20.48150, -11060, 1828.00000, -215.00000, 918.00000, 1.38702, 0.06714, 0.03052, -100.91250, 16.74400, -411100, 1831.00000, -211.00000, 921.00000, 1.44806, -0.05493, -0.03052, -100.91250, 16.74400, 11140, 1827.00000, -214.00000, 926.00000, 1.38702, 0.31128, 0.03052, -100.91250, 16.74400, -411255, 1831.00000, -212.00000, 923.00000, 1.44806, -0.05493, -0.03052, -98.96900, 19.13600, -11295, 1832.00000, -212.00000, 923.00000, 1.38702, 0.06714, -0.03052, -104.05200, 18.83700, -11335, 1829.00000, -213.00000, 925.00000, 1.44806, 0.12817, -0.03052, -101.95900, 18.23900, -11375, 1832.00000, -217.00000, 924.00000, 1.57013, 0.12817, -0.09155, -100.91250, 17.49150, -11415, 1828.00000, -213.00000, 921.00000, 1.50909, 0.12817, 0.03052, -100.91250, 17.49150, -411531, 1831.00000, -209.00000, 924.00000, 1.50909, -0.11597, -0.03052, -98.22150, 20.33200, -11571, 1826.00000, -214.00000, 923.00000, 1.50909, 0.12817, 0.03052, -101.06200, 18.08950, -411611, 1830.00000, -214.00000, 919.00000, 1.38702, 0.18921, 0.03052, -101.06200, 18.08950, -411651, 1833.00000, -215.00000, 923.00000, 1.50909, 0.06714, -0.03052, -101.80950, 17.64100, -11729, 1834.00000, -213.00000, 920.00000, 1.38702, 0.06714, 0.03052, -97.62350, 21.22900, -4911769, 1832.00000, -214.00000, 929.00000, 1.38702, 0.00610, 0.03052, -100.76300, 17.34200, -411809, 1833.00000, -209.00000, 925.00000, 1.44806, 0.31128, 0.09155, -100.76300, 17.34200, -411849, 1831.00000, -211.00000, 923.00000, 1.63116, -0.17700, -0.21362, -100.76300, 17.34200, 11889, 1830.00000, -216.00000, 925.00000, 1.44806, 0.31128, 0.03052, -101.95900, 16.74400, -412030, 1834.00000, -212.00000, 927.00000, 1.44806, 0.00610, 0.03052, -98.22150, 19.13600, -4812070, 1833.00000, -214.00000, 926.00000, 1.38702, 0.18921, 0.09155, -100.76300, 18.38850, -412110, 1829.00000, -212.00000, 923.00000, 1.57013, -0.23804, -0.09155, -102.70650, 18.23900, 12150, 1830.00000, -212.00000, 921.00000, 1.44806, 0.18921, 0.03052, -102.70650, 18.23900, -412255, 1826.00000, -211.00000, 930.00000, 1.44806, 0.31128, 0.03052, -99.11850, 20.18250, -48.58750
11020, 1833.00000, -216.00000, 923.00000, 1.44806, -0.11597, -0.03052, -97.02550, 20.48150, -11060, 1828.00000, -215.00000, 918.00000, 1.38702, 0.06714, 0.03052, -100.91250, 16.74400, -411100, 1831.00000, -211.00000, 921.00000, 1.44806, -0.05493, -0.03052, -100.91250, 16.74400, 11140, 1827.00000, -214.00000, 926.00000, 1.38702, 0.31128, 0.03052, -100.91250, 16.74400, -411255, 1831.00000, -212.00000, 923.00000, 1.44806, -0.05493, -0.03052, -98.96900, 19.13600, -11295, 1832.00000, -212.00000, 923.00000, 1.38702, 0.06714, -0.03052, -104.05200, 18.83700, -11335, 1829.00000, -213.00000, 925.00000, 1.44806, 0.12817, -0.03052, -101.95900, 18.23900, -11375, 1832.00000, -217.00000, 924.00000, 1.57013, 0.12817, -0.09155, -100.91250, 17.49150, -11415, 1828.00000, -213.00000, 921.00000, 1.50909, 0.12817, 0.03052, -100.91250, 17.49150, -411531, 1831.00000, -209.00000, 924.00000, 1.50909, -0.11597, -0.03052, -98.22150, 20.33200, -11571, 1826.00000, -214.00000, 923.00000, 1.50909, 0.12817, 0.03052, -101.06200, 18.08950, -411611, 1830.00000, -214.00000, 919.00000, 1.38702, 0.18921, 0.03052, -101.06200, 18.08950, -411651, 1833.00000, -215.00000, 923.00000, 1.50909, 0.06714, -0.03052, -101.80950, 17.64100, -11729, 1834.00000, -213.00000, 920.00000, 1.38702, 0.06714, 0.03052, -97.62350, 21.22900, -4911769, 1832.00000, -214.00000, 929.00000, 1.38702, 0.00610, 0.03052, -100.76300, 17.34200, -411809, 1833.00000, -209.00000, 925.00000, 1.44806, 0.31128, 0.09155, -100.76300, 17.34200, -411849, 1831.00000, -211.00000, 923.00000, 1.63116, -0.17700, -0.21362, -100.76300, 17.34200, 11889, 1830.00000, -216.00000, 925.00000, 1.44806, 0.31128, 0.03052, -101.95900, 16.74400, -412030, 1834.00000, -212.00000, 927.00000, 1.44806, 0.00610, 0.03052, -98.22150, 19.13600, -4812070, 1833.00000, -214.00000, 926.00000, 1.38702, 0.18921, 0.09155, -100.76300, 18.38850, -412110, 1829.00000, -212.00000, 923.00000, 1.57013, -0.23804, -0.09155, -102.70650, 18.23900, 12150, 1830.00000, -212.00000, 921.00000, 1.44806, 0.18921, 0.03052, -102.70650, 18.23900, -412255, 1826.00000, -211.00000, 930.00000, 1.44806, 0.31128, 0.03052, -99.11850, 20.18250, -48.58750
11060, 1828.00000, -215.00000, 918.00000, 1.38702, 0.06714, 0.03052, -100.91250, 16.74400, -411100, 1831.00000, -211.00000, 921.00000, 1.44806, -0.05493, -0.03052, -100.91250, 16.74400, 11140, 1827.00000, -214.00000, 926.00000, 1.38702, 0.31128, 0.03052, -100.91250, 16.74400, -411255, 1831.00000, -212.00000, 923.00000, 1.44806, -0.05493, -0.03052, -98.96900, 19.13600, -11295, 1832.00000, -212.00000, 923.00000, 1.38702, 0.06714, -0.03052, -104.05200, 18.83700, -11335, 1829.00000, -213.00000, 925.00000, 1.44806, 0.12817, -0.03052, -101.95900, 18.23900, -11375, 1832.00000, -217.00000, 924.00000, 1.57013, 0.12817, -0.09155, -100.91250, 17.49150, -11415, 1828.00000, -213.00000, 921.00000, 1.50909, 0.12817, 0.03052, -100.91250, 17.49150, -411531, 1831.00000, -209.00000, 924.00000, 1.50909, -0.11597, -0.03052, -98.22150, 20.33200, -11571, 1826.00000, -214.00000, 923.00000, 1.50909, 0.12817, 0.03052, -101.06200, 18.08950, -411611, 1830.00000, -214.00000, 919.00000, 1.38702, 0.18921, 0.03052, -101.06200, 18.08950, -411651, 1833.00000, -215.00000, 923.00000, 1.50909, 0.06714, -0.03052, -101.80950, 17.64100, -11729, 1834.00000, -213.00000, 920.00000, 1.38702, 0.06714, 0.03052, -97.62350, 21.22900, -4911769, 1832.00000, -214.00000, 929.00000, 1.38702, 0.00610, 0.03052, -100.76300, 17.34200, -411809, 1833.00000, -209.00000, 925.00000, 1.44806, 0.31128, 0.09155, -100.76300, 17.34200, -411849, 1831.00000, -211.00000, 923.00000, 1.63116, -0.17700, -0.21362, -100.76300, 17.34200, 11889, 1830.00000, -216.00000, 925.00000, 1.44806, 0.31128, 0.03052, -101.95900, 16.74400, -412030, 1834.00000, -212.00000, 927.00000, 1.44806, 0.00610, 0.03052, -98.22150, 19.13600, -4812070, 1833.00000, -214.00000, 926.00000, 1.38702, 0.18921, 0.09155, -100.76300, 18.38850, -412110, 1829.00000, -212.00000, 923.00000, 1.57013, -0.23804, -0.09155, -102.70650, 18.23900, 12150, 1830.00000, -212.00000, 921.00000, 1.44806, 0.18921, 0.03052, -102.70650, 18.23900, -412255, 1826.00000, -211.00000, 930.00000, 1.44806, 0.31128, 0.03052, -99.11850, 20.18250, -48.58750
11100, 1831.00000, -211.00000, 921.00000, 1.44806, -0.05493, -0.03052, -100.91250, 16.74400, 11140, 1827.00000, -214.00000, 926.00000, 1.38702, 0.31128, 0.03052, -100.91250, 16.74400, -411255, 1831.00000, -212.00000, 923.00000, 1.44806, -0.05493, -0.03052, -98.96900, 19.13600, -11295, 1832.00000, -212.00000, 923.00000, 1.38702, 0.06714, -0.03052, -104.05200, 18.83700, -11335, 1829.00000, -213.00000, 925.00000, 1.44806, 0.12817, -0.03052, -101.95900, 18.23900, -11375, 1832.00000, -217.00000, 924.00000, 1.57013, 0.12817, -0.09155, -100.91250, 17.49150, -11415, 1828.00000, -213.00000, 921.00000, 1.50909, 0.12817, 0.03052, -100.91250, 17.49150, -411531, 1831.00000, -209.00000, 924.00000, 1.50909, -0.11597, -0.03052, -98.22150, 20.33200, -11571, 1826.00000, -214.00000, 923.00000, 1.50909, 0.12817, 0.03052, -101.06200, 18.08950, -411611, 1830.00000, -214.00000, 919.00000, 1.38702, 0.18921, 0.03052, -101.06200, 18.08950, -411651, 1833.00000, -215.00000, 923.00000, 1.50909, 0.06714, -0.03052, -101.80950, 17.64100, -11729, 1834.00000, -213.00000, 920.00000, 1.38702, 0.06714, 0.03052, -97.62350, 21.22900, -4911769, 1832.00000, -214.00000, 929.00000, 1.38702, 0.00610, 0.03052, -100.76300, 17.34200, -411809, 1833.00000, -209.00000, 925.00000, 1.44806, 0.31128, 0.09155, -100.76300, 17.34200, -411849, 1831.00000, -211.00000, 923.00000, 1.63116, -0.17700, -0.21362, -100.76300, 17.34200, 11889, 1830.00000, -216.00000, 925.00000, 1.44806, 0.31128, 0.03052, -101.95900, 16.74400, -412030, 1834.00000, -212.00000, 927.00000, 1.44806, 0.00610, 0.03052, -98.22150, 19.13600, -4812070, 1833.00000, -214.00000, 926.00000, 1.38702, 0.18921, 0.09155, -100.76300, 18.38850, -412110, 1829.00000, -212.00000, 923.00000, 1.57013, -0.23804, -0.09155, -102.70650, 18.23900, 12150, 1830.00000, -212.00000, 921.00000, 1.44806, 0.18921, 0.03052, -102.70650, 18.23900, -412255, 1826.00000, -211.00000, 930.00000, 1.44806, 0.31128, 0.03052, -99.11850, 20.18250, -48.58750
11140, 1827.00000, -214.00000, 926.00000, 1.38702, 0.31128, 0.03052, -100.91250, 16.74400, -411255, 1831.00000, -212.00000, 923.00000, 1.44806, -0.05493, -0.03052, -98.96900, 19.13600, -11295, 1832.00000, -212.00000, 923.00000, 1.38702, 0.06714, -0.03052, -104.05200, 18.83700, -11335, 1829.00000, -213.00000, 925.00000, 1.44806, 0.12817, -0.03052, -101.95900, 18.23900, -11375, 1832.00000, -217.00000, 924.00000, 1.57013, 0.12817, -0.09155, -100.91250, 17.49150, -11415, 1828.00000, -213.00000, 921.00000, 1.50909, 0.12817, 0.03052, -100.91250, 17.49150, -411531, 1831.00000, -209.00000, 924.00000, 1.50909, -0.11597, -0.03052, -98.22150, 20.33200, -11571, 1826.00000, -214.00000, 923.00000, 1.50909, 0.12817, 0.03052, -101.06200, 18.08950, -411611, 1830.00000, -214.00000, 919.00000, 1.38702, 0.18921, 0.03052, -101.06200, 18.08950, -411651, 1833.00000, -215.00000, 923.00000, 1.50909, 0.06714, -0.03052, -101.80950, 17.64100, -11729, 1834.00000, -213.00000, 920.00000, 1.38702, 0.06714, 0.03052, -97.62350, 21.22900, -4911769, 1832.00000, -214.00000, 929.00000, 1.38702, 0.00610, 0.03052, -100.76300, 17.34200, -411809, 1833.00000, -209.00000, 925.00000, 1.44806, 0.31128, 0.09155, -100.76300, 17.34200, -411849, 1831.00000, -211.00000, 923.00000, 1.63116, -0.17700, -0.21362, -100.76300, 17.34200, 11889, 1830.00000, -216.00000, 925.00000, 1.44806, 0.31128, 0.03052, -101.95900, 16.74400, -412030, 1834.00000, -212.00000, 927.00000, 1.44806, 0.00610, 0.03052, -98.22150, 19.13600, -4812070, 1833.00000, -214.00000, 926.00000, 1.38702, 0.18921, 0.09155, -100.76300, 18.38850, -412110, 1829.00000, -212.00000, 923.00000, 1.57013, -0.23804, -0.09155, -102.70650, 18.23900, 12150, 1830.00000, -212.00000, 921.00000, 1.44806, 0.18921, 0.03052, -102.70650, 18.23900, -412255, 1826.00000, -211.00000, 930.00000, 1.44806, 0.31128, 0.03052, -99.11850, 20.18250, -48.58750
11255, 1831.00000, -212.00000, 923.00000, 1.44806, -0.05493, -0.03052, -98.96900, 19.13600, -11295, 1832.00000, -212.00000, 923.00000, 1.38702, 0.06714, -0.03052, -104.05200, 18.83700, -11335, 1829.00000, -213.00000, 925.00000, 1.44806, 0.12817, -0.03052, -101.95900, 18.23900, -11375, 1832.00000, -217.00000, 924.00000, 1.57013, 0.12817, -0.09155, -100.91250, 17.49150, -11415, 1828.00000, -213.00000, 921.00000, 1.50909, 0.12817, 0.03052, -100.91250, 17.49150, -411531, 1831.00000, -209.00000, 924.00000, 1.50909, -0.11597, -0.03052, -98.22150, 20.33200, -11571, 1826.00000, -214.00000, 923.00000, 1.50909, 0.12817, 0.03052, -101.06200, 18.08950, -411611, 1830.00000, -214.00000, 919.00000, 1.38702, 0.18921, 0.03052, -101.06200, 18.08950, -411651, 1833.00000, -215.00000, 923.00000, 1.50909, 0.06714, -0.03052, -101.80950, 17.64100, -11729, 1834.00000, -213.00000, 920.00000, 1.38702, 0.06714, 0.03052, -97.62350, 21.22900, -4911769, 1832.00000, -214.00000, 929.00000, 1.38702, 0.00610, 0.03052, -100.76300, 17.34200, -411809, 1833.00000, -209.00000, 925.00000, 1.44806, 0.31128, 0.09155, -100.76300, 17.34200, -411849, 1831.00000, -211.00000, 923.00000, 1.63116, -0.17700, -0.21362, -100.76300, 17.34200, 11889, 1830.00000, -216.00000, 925.00000, 1.44806, 0.31128, 0.03052, -101.95900, 16.74400, -412030, 1834.00000, -212.00000, 927.00000, 1.44806, 0.00610, 0.03052, -98.22150, 19.13600, -4812070, 1833.00000, -214.00000, 926.00000, 1.38702, 0.18921, 0.09155, -100.76300, 18.38850, -412110, 1829.00000, -212.00000, 923.00000, 1.57013, -0.23804, -0.09155, -102.70650, 18.23900, 12150, 1830.00000, -212.00000, 921.00000, 1.44806, 0.18921, 0.03052, -102.70650, 18.23900, -412255, 1826.00000, -211.00000, 930.00000, 1.44806, 0.31128, 0.03052, -99.11850, 20.18250, -48.58750
11295, 1832.00000, -212.00000, 923.00000, 1.38702, 0.06714, -0.03052, -104.05200, 18.83700, -11335, 1829.00000, -213.00000, 925.00000, 1.44806, 0.12817, -0.03052, -101.95900, 18.23900, -11375, 1832.00000, -217.00000, 924.00000, 1.57013, 0.12817, -0.09155, -100.91250, 17.49150, -11415, 1828.00000, -213.00000, 921.00000, 1.50909, 0.12817, 0.03052, -100.91250, 17.49150, -411531, 1831.00000, -209.00000, 924.00000, 1.50909, -0.11597, -0.03052, -98.22150, 20.33200, -11571, 1826.00000, -214.00000, 923.00000, 1.50909, 0.12817, 0.03052, -101.06200, 18.08950, -411611, 1830.00000, -214.00000, 919.00000, 1.38702, 0.18921, 0.03052, -101.06200, 18.08950, -411651, 1833.00000, -215.00000, 923.00000, 1.50909, 0.06714, -0.03052, -101.80950, 17.64100, -11729, 1834.00000, -213.00000, 920.00000, 1.38702, 0.06714, 0.03052, -97.62350, 21.22900, -4911769, 1832.00000, -214.00000, 929.00000, 1.38702, 0.00610, 0.03052, -100.76300, 17.34200, -411809, 1833.00000, -209.00000, 925.00000, 1.44806, 0.31128, 0.09155, -100.76300, 17.34200, -411849, 1831.00000, -211.00000, 923.00000, 1.63116, -0.17700, -0.21362, -100.76300, 17.34200, 11889, 1830.00000, -216.00000, 925.00000, 1.44806, 0.31128, 0.03052, -101.95900, 16.74400, -412030, 1834.00000, -212.00000, 927.00000, 1.44806, 0.00610, 0.03052, -98.22150, 19.13600, -4812070, 1833.00000, -214.00000, 926.00000, 1.38702, 0.18921, 0.09155, -100.76300, 18.38850, -412110, 1829.00000, -212.00000, 923.00000, 1.57013, -0.23804, -0.09155, -102.70650, 18.23900, 12150, 1830.00000, -212.00000, 921.00000, 1.44806, 0.18921, 0.03052, -102.70650, 18.23900, -412255, 1826.00000, -211.00000, 930.00000, 1.44806, 0.31128, 0.03052, -99.11850, 20.18250, -48.58750
11335, 1829.00000, -213.00000, 925.00000, 1.44806, 0.12817, -0.03052, -101.95900, 18.23900, -11375, 1832.00000, -217.00000, 924.00000, 1.57013, 0.12817, -0.09155, -100.91250, 17.49150, -11415, 1828.00000, -213.00000, 921.00000, 1.50909, 0.12817, 0.03052, -100.91250, 17.49150, -411531, 1831.00000, -209.00000, 924.00000, 1.50909, -0.11597, -0.03052, -98.22150, 20.33200, -11571, 1826.00000, -214.00000, 923.00000, 1.50909, 0.12817, 0.03052, -101.06200, 18.08950, -411611, 1830.00000, -214.00000, 919.00000, 1.38702, 0.18921, 0.03052, -101.06200, 18.08950, -411651, 1833.00000, -215.00000, 923.00000, 1.50909, 0.06714, -0.03052, -101.80950, 17.64100, -11729, 1834.00000, -213.00000, 920.00000, 1.38702, 0.06714, 0.03052, -97.62350, 21.22900, -4911769, 1832.00000, -214.00000, 929.00000, 1.38702, 0.00610, 0.03052, -100.76300, 17.34200, -411809, 1833.00000, -209.00000, 925.00000, 1.44806, 0.31128, 0.09155, -100.76300, 17.34200, -411849, 1831.00000, -211.00000, 923.00000, 1.63116, -0.17700, -0.21362, -100.76300, 17.34200, 11889, 1830.00000, -216.00000, 925.00000, 1.44806, 0.31128, 0.03052, -101.95900, 16.74400, -412030, 1834.00000, -212.00000, 927.00000, 1.44806, 0.00610, 0.03052, -98.22150, 19.13600, -4812070, 1833.00000, -214.00000, 926.00000, 1.38702, 0.18921, 0.09155, -100.76300, 18.38850, -412110, 1829.00000, -212.00000, 923.00000, 1.57013, -0.23804, -0.09155, -102.70650, 18.23900, 12150, 1830.00000, -212.00000, 921.00000, 1.44806, 0.18921, 0.03052, -102.70650, 18.23900, -412255, 1826.00000, -211.00000, 930.00000, 1.44806, 0.31128, 0.03052, -99.11850, 20.18250, -48.58750
11375, 1832.00000, -217.00000, 924.00000, 1.57013, 0.12817, -0.09155, -100.91250, 17.49150, -11415, 1828.00000, -213.00000, 921.00000, 1.50909, 0.12817, 0.03052, -100.91250, 17.49150, -411531, 1831.00000, -209.00000, 924.00000, 1.50909, -0.11597, -0.03052, -98.22150, 20.33200, -11571, 1826.00000, -214.00000, 923.00000, 1.50909, 0.12817, 0.03052, -101.06200, 18.08950, -411611, 1830.00000, -214.00000, 919.00000, 1.38702, 0.18921, 0.03052, -101.06200, 18.08950, -411651, 1833.00000, -215.00000, 923.00000, 1.50909, 0.06714, -0.03052, -101.80950, 17.64100, -11729, 1834.00000, -213.00000, 920.00000, 1.38702, 0.06714, 0.03052, -97.62350, 21.22900, -4911769, 1832.00000, -214.00000, 929.00000, 1.38702, 0.00610, 0.03052, -100.76300, 17.34200, -411809, 1833.00000, -209.00000, 925.00000, 1.44806, 0.31128, 0.09155, -100.76300, 17.34200, -411849, 1831.00000, -211.00000, 923.00000, 1.63116, -0.17700, -0.21362, -100.76300, 17.34200, 11889, 1830.00000, -216.00000, 925.00000, 1.44806, 0.31128, 0.03052, -101.95900, 16.74400, -412030, 1834.00000, -212.00000, 927.00000, 1.44806, 0.00610, 0.03052, -98.22150, 19.13600, -4812070, 1833.00000, -214.00000, 926.00000, 1.38702, 0.18921, 0.09155, -100.76300, 18.38850, -412110, 1829.00000, -212.00000, 923.00000, 1.57013, -0.23804, -0.09155, -102.70650, 18.23900, 12150, 1830.00000, -212.00000, 921.00000, 1.44806, 0.18921, 0.03052, -102.70650, 18.23900, -412255, 1826.00000, -211.00000, 930.00000, 1.44806, 0.31128, 0.03052, -99.11850, 20.18250, -48.58750
11415, 1828.00000, -213.00000, 921.00000, 1.50909, 0.12817, 0.03052, -100.91250, 17.49150, -411531, 1831.00000, -209.00000, 924.00000, 1.50909, -0.11597, -0.03052, -98.22150, 20.33200, -11571, 1826.00000, -214.00000, 923.00000, 1.50909, 0.12817, 0.03052, -101.06200, 18.08950, -411611, 1830.00000, -214.00000, 919.00000, 1.38702, 0.18921, 0.03052, -101.06200, 18.08950, -411651, 1833.00000, -215.00000, 923.00000, 1.50909, 0.06714, -0.03052, -101.80950, 17.64100, -11729, 1834.00000, -213.00000, 920.00000, 1.38702, 0.06714, 0.03052, -97.62350, 21.22900, -4911769, 1832.00000, -214.00000, 929.00000, 1.38702, 0.00610, 0.03052, -100.76300, 17.34200, -411809, 1833.00000, -209.00000, 925.00000, 1.44806, 0.31128, 0.09155, -100.76300, 17.34200, -411849, 1831.00000, -211.00000, 923.00000, 1.63116, -0.17700, -0.21362, -100.76300, 17.34200, 11889, 1830.00000, -216.00000, 925.00000, 1.44806, 0.31128, 0.03052, -101.95900, 16.74400, -412030, 1834.00000, -212.00000, 927.00000, 1.44806, 0.00610, 0.03052, -98.22150, 19.13600, -4812070, 1833.00000, -214.00000, 926.00000, 1.38702, 0.18921, 0.09155, -100.76300, 18.38850, -412110, 1829.00000, -212.00000, 923.00000, 1.57013, -0.23804, -0.09155, -102.70650, 18.23900, 12150, 1830.00000, -212.00000, 921.00000, 1.44806, 0.18921, 0.03052, -102.70650, 18.23900, -412255, 1826.00000, -211.00000, 930.00000, 1.44806, 0.31128, 0.03052, -99.11850, 20.18250, -48.58750
11531, 1831.00000, -209.00000, 924.00000, 1.50909, -0.11597, -0.03052, -98.22150, 20.33200, -11571, 1826.00000, -214.00000, 923.00000, 1.50909, 0.12817, 0.03052, -101.06200, 18.08950, -411611, 1830.00000, -214.00000, 919.00000, 1.38702, 0.18921, 0.03052, -101.06200, 18.08950, -411651, 1833.00000, -215.00000, 923.00000, 1.50909, 0.06714, -0.03052, -101.80950, 17.64100, -11729, 1834.00000, -213.00000, 920.00000, 1.38702, 0.06714, 0.03052, -97.62350, 21.22900, -4911769, 1832.00000, -214.00000, 929.00000, 1.38702, 0.00610, 0.03052, -100.76300, 17.34200, -411809, 1833.00000, -209.00000, 925.00000, 1.44806, 0.31128, 0.09155, -100.76300, 17.34200, -411849, 1831.00000, -211.00000, 923.00000, 1.63116, -0.17700, -0.21362, -100.76300, 17.34200, 11889, 1830.00000, -216.00000, 925.00000, 1.44806, 0.31128, 0.03052, -101.95900, 16.74400, -412030, 1834.00000, -212.00000, 927.00000, 1.44806, 0.00610, 0.03052, -98.22150, 19.13600, -4812070, 1833.00000, -214.00000, 926.00000, 1.38702, 0.18921, 0.09155, -100.76300, 18.38850, -412110, 1829.00000, -212.00000, 923.00000, 1.57013, -0.23804, -0.09155, -102.70650, 18.23900, 12150, 1830.00000, -212.00000, 921.00000, 1.44806, 0.18921, 0.03052, -102.70650, 18.23900, -412255, 1826.00000, -211.00000, 930.00000, 1.44806, 0.31128, 0.03052, -99.11850, 20.18250, -48.58750
11571, 1826.00000, -214.00000, 923.00000, 1.50909, 0.12817, 0.03052, -101.06200, 18.08950, -411611, 1830.00000, -214.00000, 919.00000, 1.38702, 0.18921, 0.03052, -101.06200, 18.08950, -411651, 1833.00000, -215.00000, 923.00000, 1.50909, 0.06714, -0.03052, -101.80950, 17.64100, -11729, 1834.00000, -213.00000, 920.00000, 1.38702, 0.06714, 0.03052, -97.62350, 21.22900, -4911769, 1832.00000, -214.00000, 929.00000, 1.38702, 0.00610, 0.03052, -100.76300, 17.34200, -411809, 1833.00000, -209.00000, 925.00000, 1.44806, 0.31128, 0.09155, -100.76300, 17.34200, -411849, 1831.00000, -211.00000, 923.00000, 1.63116, -0.17700, -0.21362, -100.76300, 17.34200, 11889, 1830.00000, -216.00000, 925.00000, 1.44806, 0.31128, 0.03052, -101.95900, 16.74400, -412030, 1834.00000, -212.00000, 927.00000, 1.44806, 0.00610, 0.03052, -98.22150, 19.13600, -4812070, 1833.00000, -214.00000, 926.00000, 1.38702, 0.18921, 0.09155, -100.76300, 18.38850, -412110, 1829.00000, -212.00000, 923.00000, 1.57013, -0.23804, -0.09155, -102.70650, 18.23900, 12150, 1830.00000, -212.00000, 921.00000, 1.44806, 0.18921, 0.03052, -102.70650, 18.23900, -412255, 1826.00000, -211.00000, 930.00000, 1.44806, 0.31128, 0.03052, -99.11850, 20.18250, -48.58750
11611, 1830.00000, -214.00000, 919.00000, 1.38702, 0.18921, 0.03052, -101.06200, 18.08950, -411651, 1833.00000, -215.00000, 923.00000, 1.50909, 0.06714, -0.03052, -101.80950, 17.64100, -11729, 1834.00000, -213.00000, 920.00000, 1.38702, 0.06714, 0.03052, -97.62350, 21.22900, -4911769, 1832.00000, -214.00000, 929.00000, 1.38702, 0.00610, 0.03052, -100.76300, 17.34200, -411809, 1833.00000, -209.00000, 925.00000, 1.44806, 0.31128, 0.09155, -100.76300, 17.34200, -411849, 1831.00000, -211.00000, 923.00000, 1.63116, -0.17700, -0.21362, -100.76300, 17.34200, 11889, 1830.00000, -216.00000, 925.00000, 1.44806, 0.31128, 0.03052, -101.95900, 16.74400, -412030, 1834.00000, -212.00000, 927.00000, 1.44806, 0.00610, 0.03052, -98.22150, 19.13600, -4812070, 1833.00000, -214.00000, 926.00000, 1.38702, 0.18921, 0.09155, -100.76300, 18.38850, -412110, 1829.00000, -212.00000, 923.00000, 1.57013, -0.23804, -0.09155, -102.70650, 18.23900, 12150, 1830.00000, -212.00000, 921.00000, 1.44806, 0.18921, 0.03052, -102.70650, 18.23900, -412255, 1826.00000, -211.00000, 930.00000, 1.44806, 0.31128, 0.03052, -99.11850, 20.18250, -48.58750
11651, 1833.00000, -215.00000, 923.00000, 1.50909, 0.06714, -0.03052, -101.80950, 17.64100, -11729, 1834.00000, -213.00000, 920.00000, 1.38702, 0.06714, 0.03052, -97.62350, 21.22900, -4911769, 1832.00000, -214.00000, 929.00000, 1.38702, 0.00610, 0.03052, -100.76300, 17.34200, -411809, 1833.00000, -209.00000, 925.00000, 1.44806, 0.31128, 0.09155, -100.76300, 17.34200, -411849, 1831.00000, -211.00000, 923.00000, 1.63116, -0.17700, -0.21362, -100.76300, 17.34200, 11889, 1830.00000, -216.00000, 925.00000, 1.44806, 0.31128, 0.03052, -101.95900, 16.74400, -412030, 1834.00000, -212.00000, 927.00000, 1.44806, 0.00610, 0.03052, -98.22150, 19.13600, -4812070, 1833.00000, -214.00000, 926.00000, 1.38702, 0.18921, 0.09155, -100.76300, 18.38850, -412110, 1829.00000, -212.00000, 923.00000, 1.57013, -0.23804, -0.09155, -102.70650, 18.23900, 12150, 1830.00000, -212.00000, 921.00000, 1.44806, 0.18921, 0.03052, -102.70650, 18.23900, -412255, 1826.00000, -211.00000, 930.00000, 1.44806, 0.31128, 0.03052, -99.11850, 20.18250, -48.58750
11729, 1834.00000, -213.00000, 920.00000, 1.38702, 0.06714, 0.03052, -97.62350, 21.22900, -4911769, 1832.00000, -214.00000, 929.00000, 1.38702, 0.00610, 0.03052, -100.76300, 17.34200, -411809, 1833.00000, -209.00000, 925.00000, 1.44806, 0.31128, 0.09155, -100.76300, 17.34200, -411849, 1831.00000, -211.00000, 923.00000, 1.63116, -0.17700, -0.21362, -100.76300, 17.34200, 11889, 1830.00000, -216.00000, 925.00000, 1.44806, 0.31128, 0.03052, -101.95900, 16.74400, -412030, 1834.00000, -212.00000, 927.00000, 1.44806, 0.00610, 0.03052, -98.22150, 19.13600, -4812070, 1833.00000, -214.00000, 926.00000, 1.38702, 0.18921, 0.09155, -100.76300, 18.38850, -412110, 1829.00000, -212.00000, 923.00000, 1.57013, -0.23804, -0.09155, -102.70650, 18.23900, 12150, 1830.00000, -212.00000, 921.00000, 1.44806, 0.18921, 0.03052, -102.70650, 18.23900, -412255, 1826.00000, -211.00000, 930.00000, 1.44806, 0.31128, 0.03052, -99.11850, 20.18250, -48.58750
11769, 1832.00000, -214.00000, 929.00000, 1.38702, 0.00610, 0.03052, -100.76300, 17.34200, -411809, 1833.00000, -209.00000, 925.00000, 1.44806, 0.31128, 0.09155, -100.76300, 17.34200, -411849, 1831.00000, -211.00000, 923.00000, 1.63116, -0.17700, -0.21362, -100.76300, 17.34200, 11889, 1830.00000, -216.00000, 925.00000, 1.44806, 0.31128, 0.03052, -101.95900, 16.74400, -412030, 1834.00000, -212.00000, 927.00000, 1.44806, 0.00610, 0.03052, -98.22150, 19.13600, -4812070, 1833.00000, -214.00000, 926.00000, 1.38702, 0.18921, 0.09155, -100.76300, 18.38850, -412110, 1829.00000, -212.00000, 923.00000, 1.57013, -0.23804, -0.09155, -102.70650, 18.23900, 12150, 1830.00000, -212.00000, 921.00000, 1.44806, 0.18921, 0.03052, -102.70650, 18.23900, -412255, 1826.00000, -211.00000, 930.00000, 1.44806, 0.31128, 0.03052, -99.11850, 20.18250, -48.58750
11809, 1833.00000, -209.00000, 925.00000, 1.44806, 0.31128, 0.09155, -100.76300, 17.34200, -411849, 1831.00000, -211.00000, 923.00000, 1.63116, -0.17700, -0.21362, -100.76300, 17.34200, 11889, 1830.00000, -216.00000, 925.00000, 1.44806, 0.31128, 0.03052, -101.95900, 16.74400, -412030, 1834.00000, -212.00000, 927.00000, 1.44806, 0.00610, 0.03052, -98.22150, 19.13600, -4812070, 1833.00000, -214.00000, 926.00000, 1.38702, 0.18921, 0.09155, -100.76300, 18.38850, -412110, 1829.00000, -212.00000, 923.00000, 1.57013, -0.23804, -0.09155, -102.70650, 18.23900, 12150, 1830.00000, -212.00000, 921.00000, 1.44806, 0.18921, 0.03052, -102.70650, 18.23900, -412255, 1826.00000, -211.00000, 930.00000, 1.44806, 0.31128, 0.03052, -99.11850, 20.18250, -48.58750
11849, 1831.00000, -211.00000, 923.00000, 1.63116, -0.17700, -0.21362, -100.76300, 17.34200, 11889, 1830.00000, -216.00000, 925.00000, 1.44806, 0.31128, 0.03052, -101.95900, 16.74400, -412030, 1834.00000, -212.00000, 927.00000, 1.44806, 0.00610, 0.03052, -98.22150, 19.13600, -4812070, 1833.00000, -214.00000, 926.00000, 1.38702, 0.18921, 0.09155, -100.76300, 18.38850, -412110, 1829.00000, -212.00000, 923.00000, 1.57013, -0.23804, -0.09155, -102.70650, 18.23900, 12150, 1830.00000, -212.00000, 921.00000, 1.44806, 0.18921, 0.03052, -102.70650, 18.23900, -412255, 1826.00000, -211.00000, 930.00000, 1.44806, 0.31128, 0.03052, -99.11850, 20.18250, -48.58750
11889, 1830.00000, -216.00000, 925.00000, 1.44806, 0.31128, 0.03052, -101.95900, 16.74400, -412030, 1834.00000, -212.00000, 927.00000, 1.44806, 0.00610, 0.03052, -98.22150, 19.13600, -4812070, 1833.00000, -214.00000, 926.00000, 1.38702, 0.18921, 0.09155, -100.76300, 18.38850, -412110, 1829.00000, -212.00000, 923.00000, 1.57013, -0.23804, -0.09155, -102.70650, 18.23900, 12150, 1830.00000, -212.00000, 921.00000, 1.44806, 0.18921, 0.03052, -102.70650, 18.23900, -412255, 1826.00000, -211.00000, 930.00000, 1.44806, 0.31128, 0.03052, -99.11850, 20.18250, -48.58750
12030, 1834.00000, -212.00000, 927.00000, 1.44806, 0.00610, 0.03052, -98.22150, 19.13600, -4812070, 1833.00000, -214.00000, 926.00000, 1.38702, 0.18921, 0.09155, -100.76300, 18.38850, -412110, 1829.00000, -212.00000, 923.00000, 1.57013, -0.23804, -0.09155, -102.70650, 18.23900, 12150, 1830.00000, -212.00000, 921.00000, 1.44806, 0.18921, 0.03052, -102.70650, 18.23900, -412255, 1826.00000, -211.00000, 930.00000, 1.44806, 0.31128, 0.03052, -99.11850, 20.18250, -48.58750
12070, 1833.00000, -214.00000, 926.00000, 1.38702, 0.18921, 0.09155, -100.76300, 18.38850, -412110, 1829.00000, -212.00000, 923.00000, 1.57013, -0.23804, -0.09155, -102.70650, 18.23900, 12150, 1830.00000, -212.00000, 921.00000, 1.44806, 0.18921, 0.03052, -102.70650, 18.23900, -412255, 1826.00000, -211.00000, 930.00000, 1.44806, 0.31128, 0.03052, -99.11850, 20.18250, -48.58750
12110, 1829.00000, -212.00000, 923.00000, 1.57013, -0.23804, -0.09155, -102.70650, 18.23900, 12150, 1830.00000, -212.00000, 921.00000, 1.44806, 0.18921, 0.03052, -102.70650, 18.23900, -412255, 1826.00000, -211.00000, 930.00000, 1.44806, 0.31128, 0.03052, -99.11850, 20.18250, -48.58750
12150, 1830.00000, -212.00000, 921.00000, 1.44806, 0.18921, 0.03052, -102.70650, 18.23900, -412255, 1826.00000, -211.00000, 930.00000, 1.44806, 0.31128, 0.03052, -99.11850, 20.18250, -48.58750
12255, 1826.00000, -211.00000, 930.00000, 1.44806, 0.31128, 0.03052, -99.11850, 20.18250, -48.58750
12466, 1830.00000, -213.00000, 925.00000, 1.69220, -0.11597, -0.09155, -100.46400, 18.38850, 12506, 1833.00000, -215.00000, 926.00000, 1.50909, 0.06714, -0.03052, -100.46400, 18.38850, -12546, 1830.00000, -214.00000, 921.00000, 1.38702, -0.05493, -0.03052, -100.46400, 18.38850, 12586, 1833.00000, -215.00000, 921.00000, 1.32599, 0.12817, 0.15259, -100.46400, 18.38850, -412626, 1836.00000, -211.00000, 916.00000, 1.57013, -0.11597, -0.03052, -103.15500, 17.49150, 12666, 1829.00000, -212.00000, 919.00000, 1.38702, 0.25024, -0.03052, -101.80950, 15.84700, -12706, 1832.00000, -212.00000, 925.00000, 1.50909, 0.25024, -0.03052, -101.80950, 16.89350, -12819, 1829.00000, -210.00000, 932.00000, 1.32599, 0.06714, 0.03052, -97.32450, 21.22900, -4812859, 1838.00000, -208.00000, 924.00000, 1.38702, 0.31128, 0.09155, -97.32450, 21.22900, -4812899, 1833.00000, -217.00000, 916.00000, 1.75323, -0.23804, -0.33569, -97.32450, 21.22900, -12939, 1844.00000, -209.00000, 918.00000, 1.44806, 0.25024, 0.09155, -97.32450, 21.22900, -4813044, 1829.00000, -210.00000, 930.00000, 1.57013, -0.11597, -0.15259, -97.17500, 20.63100, -13084, 1827.00000, -215.00000, 924.00000, 1.38702, -0.17700, -0.03052, -99.56700, 18.98650, -13124, 1838.00000, -214.00000, 913.00000, 1.38702, 0.00610, 0.03052, -101.06200, 17.64100, -413164, 1832.00000, -207.00000, 917.00000, 1.50909, -0.05493, -0.03052, -103.45399, 17.49150, 13204, 1827.00000, -213.00000, 925.00000, 1.44806, 0.37231, 0.15259, -103.45399, 17.49150, -413268, 1823.00000, -212.00000, 931.00000, 1.57013, 0.12817, 0.03052, -103.45399, 17.49150, -413308, 1834.00000, -209.00000, 923.00000, 1.57013, -0.05493, -0.15259, -102.25800, 18.83700, 13348, 1833.00000, -213.00000, 918.00000, 1.44806, 0.06714, 0.03052, -102.40750, 18.68750, -413388, 1835.00000, -214.00000, 917.00000, 1.50909, 0.06714, -0.09155, -102.40750, 18.68750, -13428, 1834.00000, -213.00000, 923.00000, 1.38702, 0.12817, 0.09155, -102.55700, 18.83700, -413548, 1830.00000, -208.00000, 923.00000, 1.50909, 0.00610, -0.03052, -97.02550, 20.93000, -513588, 1837.00000, -211.00000, 916.00000, 1.50909, 0.06714, -0.03052, -97.02550, 20.93000, -513628, 1832.00000, -213.00000, 923.00000, 1.50909, 0.18921, -0.03052, -97.02550, 20.93000, -513668, 1830.00000, -217.00000, 927.00000, 1.44806, 0.31128, 0.09155, -101.66000, 16.44500, -45.44800
12506, 1833.00000, -215.00000, 926.00000, 1.50909, 0.06714, -0.03052, -100.46400, 18.38850, -12546, 1830.00000, -214.00000, 921.00000, 1.38702, -0.05493, -0.03052, -100.46400, 18.38850, 12586, 1833.00000, -215.00000, 921.00000, 1.32599, 0.12817, 0.15259, -100.46400, 18.38850, -412626, 1836.00000, -211.00000, 916.00000, 1.57013, -0.11597, -0.03052, -103.15500, 17.49150, 12666, 1829.00000, -212.00000, 919.00000, 1.38702, 0.25024, -0.03052, -101.80950, 15.84700, -12706, 1832.00000, -212.00000, 925.00000, 1.50909, 0.25024, -0.03052, -101.80950, 16.89350, -12819, 1829.00000, -210.00000, 932.00000, 1.32599, 0.06714, 0.03052, -97.32450, 21.22900, -4812859, 1838.00000, -208.00000, 924.00000, 1.38702, 0.31128, 0.09155, -97.32450, 21.22900, -4812899, 1833.00000, -217.00000, 916.00000, 1.75323, -0.23804, -0.33569, -97.32450, 21.22900, -12939, 1844.00000, -209.00000, 918.00000, 1.44806, 0.25024, 0.09155, -97.32450, 21.22900, -4813044, 1829.00000, -210.00000, 930.00000, 1.57013, -0.11597, -0.15259, -97.17500, 20.63100, -13084, 1827.00000, -215.00000, 924.00000, 1.38702, -0.17700, -0.03052, -99.56700, 18.98650, -13124, 1838.00000, -214.00000, 913.00000, 1.38702, 0.00610, 0.03052, -101.06200, 17.64100, -413164, 1832.00000, -207.00000, 917.00000, 1.50909, -0.05493, -0.03052, -103.45399, 17.49150, 13204, 1827.00000, -213.00000, 925.00000, 1.44806, 0.37231, 0.15259, -103.45399, 17.49150, -413268, 1823.00000, -212.00000, 931.00000, 1.57013, 0.12817, 0.03052, -103.45399, 17.49150, -413308, 1834.00000, -209.00000, 923.00000, 1.57013, -0.05493, -0.15259, -102.25800, 18.83700, 13348, 1833.00000, -213.00000, 918.00000, 1.44806, 0.06714, 0.03052, -102.40750, 18.68750, -413388, 1835.00000, -214.00000, 917.00000, 1.50909, 0.06714, -0.09155, -102.40750, 18.68750, -13428, 1834.00000, -213.00000, 923.00000, 1.38702, 0.12817, 0.09155, -102.55700, 18.83700, -413548, 1830.00000, -208.00000, 923.00000, 1.50909, 0.00610, -0.03052, -97.02550, 20.93000, -513588, 1837.00000, -211.00000, 916.00000, 1.50909, 0.06714, -0.03052, -97.02550, 20.93000, -513628, 1832.00000, -213.00000, 923.00000, 1.50909, 0.18921, -0.03052, -97.02550, 20.93000, -513668, 1830.00000, -217.00000, 927.00000, 1.44806, 0.31128, 0.09155, -101.66000, 16.44500, -45.44800
12546, 1830.00000, -214.00000, 921.00000, 1.38702, -0.05493, -0.03052, -100.46400, 18.38850, 12586, 1833.00000, -215.00000, 921.00000, 1.32599, 0.12817, 0.15259, -100.46400, 18.38850, -412626, 1836.00000, -211.00000, 916.00000, 1.57013, -0.11597, -0.03052, -103.15500, 17.49150, 12666, 1829.00000, -212.00000, 919.00000, 1.38702, 0.25024, -0.03052, -101.80950, 15.84700, -12706, 1832.00000, -212.00000, 925.00000, 1.50909, 0.25024, -0.03052, -101.80950, 16.89350, -12819, 1829.00000, -210.00000, 932.00000, 1.32599, 0.06714, 0.03052, -97.32450, 21.22900, -4812859, 1838.00000, -208.00000, 924.00000, 1.38702, 0.31128, 0.09155, -97.32450, 21.22900, -4812899, 1833.00000, -217.00000, 916.00000, 1.75323, -0.23804, -0.33569, -97.32450, 21.22900, -12939, 1844.00000, -209.00000, 918.00000, 1.44806, 0.25024, 0.09155, -97.32450, 21.22900, -4813044, 1829.00000, -210.00000, 930.00000, 1.57013, -0.11597, -0.15259, -97.17500, 20.63100, -13084, 1827.00000, -215.00000, 924.00000, 1.38702, -0.17700, -0.03052, -99.56700, 18.98650, -13124, 1838.00000, -214.00000, 913.00000, 1.38702, 0.00610, 0.03052, -101.06200, 17.64100, -413164, 1832.00000, -207.00000, 917.00000, 1.50909, -0.05493, -0.03052, -103.45399, 17.49150, 13204, 1827.00000, -213.00000, 925.00000, 1.44806, 0.37231, 0.15259, -103.45399, 17.49150, -413268, 1823.00000, -212.00000, 931.00000, 1.57013, 0.12817, 0.03052, -103.45399, 17.49150, -413308, 1834.00000, -209.00000, 923.00000, 1.57013, -0.05493, -0.15259, -102.25800, 18.83700, 13348, 1833.00000, -213.00000, 918.00000, 1.44806, 0.06714, 0.03052, -102.40750, 18.68750, -413388, 1835.00000, -214.00000, 917.00000, 1.50909, 0.06714, -0.09155, -102.40750, 18.68750, -13428, 1834.00000, -213.00000, 923.00000, 1.38702, 0.12817, 0.09155, -102.55700, 18.83700, -413548, 1830.00000, -208.00000, 923.00000, 1.50909, 0.00610, -0.03052, -97.02550, 20.93000, -513588, 1837.00000, -211.00000, 916.00000, 1.50909, 0.06714, -0.03052, -97.02550, 20.93000, -513628, 1832.00000, -213.00000, 923.00000, 1.50909, 0.18921, -0.03052, -97.02550, 20.93000, -513668, 1830.00000, -217.00000, 927.00000, 1.44806, 0.31128, 0.09155, -101.66000, 16.44500, -45.44800
12586, 1833.00000, -215.00000, 921.00000, 1.32599, 0.12817, 0.15259, -100.46400, 18.38850, -412626, 1836.00000, -211.00000, 916.00000, 1.57013, -0.11597, -0.03052, -103.15500, 17.49150, 12666, 1829.00000, -212.00000, 919.00000, 1.38702, 0.25024, -0.03052, -101.80950, 15.84700, -12706, 1832.00000, -212.00000, 925.00000, 1.50909, 0.25024, -0.03052, -101.80950, 16.89350, -12819, 1829.00000, -210.00000, 932.00000, 1.32599, 0.06714, 0.03052, -97.32450, 21.22900, -4812859, 1838.00000, -208.00000, 924.00000, 1.38702, 0.31128, 0.09155, -97.32450, 21.22900, -4812899, 1833.00000, -217.00000, 916.00000, 1.75323, -0.23804, -0.33569, -97.32450, 21.22900, -12939, 1844.00000, -209.00000, 918.00000, 1.44806, 0.25024, 0.09155, -97.32450, 21.22900, -4813044, 1829.00000, -210.00000, 930.00000, 1.57013, -0.11597, -0.15259, -97.17500, 20.63100, -13084, 1827.00000, -215.00000, 924.00000, 1.38702, -0.17700, -0.03052, -99.56700, 18.98650, -13124, 1838.00000, -214.00000, 913.00000, 1.38702, 0.00610, 0.03052, -101.06200, 17.64100, -413164, 1832.00000, -207.00000, 917.00000, 1.50909, -0.05493, -0.03052, -103.45399, 17.49150, 13204, 1827.00000, -213.00000, 925.00000, 1.44806, 0.37231, 0.15259, -103.45399, 17.49150, -413268, 1823.00000, -212.00000, 931.00000, 1.57013, 0.12817, 0.03052, -103.45399, 17.49150, -413308, 1834.00000, -209.00000, 923.00000, 1.57013, -0.05493, -0.15259, -102.25800, 18.83700, 13348, 1833.00000, -213.00000, 918.00000, 1.44806, 0.06714, 0.03052, -102.40750, 18.68750, -413388, 1835.00000, -214.00000, 917.00000, 1.50909, 0.06714, -0.09155, -102.40750, 18.68750, -13428, 1834.00000, -213.00000, 923.00000, 1.38702, 0.12817, 0.09155, -102.55700, 18.83700, -413548, 1830.00000, -208.00000, 923.00000, 1.50909, 0.00610, -0.03052, -97.02550, 20.93000, -513588, 1837.00000, -211.00000, 916.00000, 1.50909, 0.06714, -0.03052, -97.02550, 20.93000, -513628, 1832.00000, -213.00000, 923.00000, 1.50909, 0.18921, -0.03052, -97.02550, 20.93000, -513668, 1830.00000, -217.00000, 927.00000, 1.44806, 0.31128, 0.09155, -101.66000, 16.44500, -45.44800
12626, 1836.00000, -211.00000, 916.00000, 1.57013, -0.11597, -0.03052, -103.15500, 17.49150, 12666, 1829.00000, -212.00000, 919.00000, 1.38702, 0.25024, -0.03052, -101.80950, 15.84700, -12706, 1832.00000, -212.00000, 925.00000, 1.50909, 0.25024, -0.03052, -101.80950, 16.89350, -12819, 1829.00000, -210.00000, 932.00000, 1.32599, 0.06714, 0.03052, -97.32450, 21.22900, -4812859, 1838.00000, -208.00000, 924.00000, 1.38702, 0.31128, 0.09155, -97.32450, 21.22900, -4812899, 1833.00000, -217.00000, 916.00000, 1.75323, -0.23804, -0.33569, -97.32450, 21.22900, -12939, 1844.00000, -209.00000, 918.00000, 1.44806, 0.25024, 0.09155, -97.32450, 21.22900, -4813044, 1829.00000, -210.00000, 930.00000, 1.57013, -0.11597, -0.15259, -97.17500, 20.63100, -13084, 1827.00000, -215.00000, 924.00000, 1.38702, -0.17700, -0.03052, -99.56700, 18.98650, -13124, 1838.00000, -214.00000, 913.00000, 1.38702, 0.00610, 0.03052, -101.06200, 17.64100, -413164, 1832.00000, -207.00000, 917.00000, 1.50909, -0.05493, -0.03052, -103.45399, 17.49150, 13204, 1827.00000, -213.00000, 925.00000, 1.44806, 0.37231, 0.15259, -103.45399, 17.49150, -413268, 1823.00000, -212.00000, 931.00000, 1.57013, 0.12817, 0.03052, -103.45399, 17.49150, -413308, 1834.00000, -209.00000, 923.00000, 1.57013, -0.05493, -0.15259, -102.25800, 18.83700, 13348, 1833.00000, -213.00000, 918.00000, 1.44806, 0.06714, 0.03052, -102.40750, 18.68750, -413388, 1835.00000, -214.00000, 917.00000, 1.50909, 0.06714, -0.09155, -102.40750, 18.68750, -13428, 1834.00000, -213.00000, 923.00000, 1.38702, 0.12817, 0.09155, -102.55700, 18.83700, -413548, 1830.00000, -208.00000, 923.00000, 1.50909, 0.00610, -0.03052, -97.02550, 20.93000, -513588, 1837.00000, -211.00000, 916.00000, 1.50909, 0.06714, -0.03052, -97.02550, 20.93000, -513628, 1832.00000, -213.00000, 923.00000, 1.50909, 0.18921, -0.03052, -97.02550, 20.93000, -513668, 1830.00000, -217.00000, 927.00000, 1.44806, 0.31128, 0.09155, -101.66000, 16.44500, -45.44800
12666, 1829.00000, -212.00000, 919.00000, 1.38702, 0.25024, -0.03052, -101.80950, 15.84700, -12706, 1832.00000, -212.00000, 925.00000, 1.50909, 0.25024, -0.03052, -101.80950, 16.89350, -12819, 1829.00000, -210.00000, 932.00000, 1.32599, 0.06714, 0.03052, -97.32450, 21.22900, -4812859, 1838.00000, -208.00000, 924.00000, 1.38702, 0.31128, 0.09155, -97.32450, 21.22900, -4812899, 1833.00000, -217.00000, 916.00000, 1.75323, -0.23804, -0.33569, -97.32450, 21.22900, -12939, 1844.00000, -209.00000, 918.00000, 1.44806, 0.25024, 0.09155, -97.32450, 21.22900, -4813044, 1829.00000, -210.00000, 930.00000, 1.57013, -0.11597, -0.15259, -97.17500, 20.63100, -13084, 1827.00000, -215.00000, 924.00000, 1.38702, -0.17700, -0.03052, -99.56700, 18.98650, -13124, 1838.00000, -214.00000, 913.00000, 1.38702, 0.00610, 0.03052, -101.06200, 17.64100, -413164, 1832.00000, -207.00000, 917.00000, 1.50909, -0.05493, -0.03052, -103.45399, 17.49150, 13204, 1827.00000, -213.00000, 925.00000, 1.44806, 0.37231, 0.15259, -103.45399, 17.49150, -413268, 1823.00000, -212.00000, 931.00000, 1.57013, 0.12817, 0.03052, -103.45399, 17.49150, -413308, 1834.00000, -209.00000, 923.00000, 1.57013, -0.05493, -0.15259, -102.25800, 18.83700, 13348, 1833.00000, -213.00000, 918.00000, 1.44806, 0.06714, 0.03052, -102.40750, 18.68750, -413388, 1835.00000, -214.00000, 917.00000, 1.50909, 0.06714, -0.09155, -102.40750, 18.68750, -13428, 1834.00000, -213.00000, 923.00000, 1.38702, 0.12817, 0.09155, -102.55700, 18.83700, -413548, 1830.00000, -208.00000, 923.00000, 1.50909, 0.00610, -0.03052, -97.02550, 20.93000, -513588, 1837.00000, -211.00000, 916.00000, 1.50909, 0.06714, -0.03052, -97.02550, 20.93000, -513628, 1832.00000, -213.00000, 923.00000, 1.50909, 0.18921, -0.03052, -97.02550, 20.93000, -513668, 1830.00000, -217.00000, 927.00000, 1.44806, 0.31128, 0.09155, -101.66000, 16.44500, -45.44800
12706, 1832.00000, -212.00000, 925.00000, 1.50909, 0.25024, -0.03052, -101.80950, 16.89350, -12819, 1829.00000, -210.00000, 932.00000, 1.32599, 0.06714, 0.03052, -97.32450, 21.22900, -4812859, 1838.00000, -208.00000, 924.00000, 1.38702, 0.31128, 0.09155, -97.32450, 21.22900, -4812899, 1833.00000, -217.00000, 916.00000, 1.75323, -0.23804, -0.33569, -97.32450, 21.22900, -12939, 1844.00000, -209.00000, 918.00000, 1.44806, 0.25024, 0.09155, -97.32450, 21.22900, -4813044, 1829.00000, -210.00000, 930.00000, 1.57013, -0.11597, -0.15259, -97.17500, 20.63100, -13084, 1827.00000, -215.00000, 924.00000, 1.38702, -0.17700, -0.03052, -99.56700, 18.98650, -13124, 1838.00000, -214.00000, 913.00000, 1.38702, 0.00610, 0.03052, -101.06200, 17.64100, -413164, 1832.00000, -207.00000, 917.00000, 1.50909, -0.05493, -0.03052, -103.45399, 17.49150, 13204, 1827.00000, -213.00000, 925.00000, 1.44806, 0.37231, 0.15259, -103.45399, 17.49150, -413268, 1823.00000, -212.00000, 931.00000, 1.57013, 0.12817, 0.03052, -103.45399, 17.49150, -413308, 1834.00000, -209.00000, 923.00000, 1.57013, -0.05493, -0.15259, -102.25800, 18.83700, 13348, 1833.00000, -213.00000, 918.00000, 1.44806, 0.06714, 0.03052, -102.40750, 18.68750, -413388, 1835.00000, -214.00000, 917.00000, 1.50909, 0.06714, -0.09155, -102.40750, 18.68750, -13428, 1834.00000, -213.00000, 923.00000, 1.38702, 0.12817, 0.09155, -102.55700, 18.83700, -413548, 1830.00000, -208.00000, 923.00000, 1.50909, 0.00610, -0.03052, -97.02550, 20.93000, -513588, 1837.00000, -211.00000, 916.00000, 1.50909, 0.06714, -0.03052, -97.02550, 20.93000, -513628, 1832.00000, -213.00000, 923.00000, 1.50909, 0.18921, -0.03052, -97.02550, 20.93000, -513668, 1830.00000, -217.00000, 927.00000, 1.44806, 0.31128, 0.09155, -101.66000, 16.44500, -45.44800
12819, 1829.00000, -210.00000, 932.00000, 1.32599, 0.06714, 0.03052, -97.32450, 21.22900, -4812859, 1838.00000, -208.00000, 924.00000, 1.38702, 0.31128, 0.09155, -97.32450, 21.22900, -4812899, 1833.00000, -217.00000, 916.00000, 1.75323, -0.23804, -0.33569, -97.32450, 21.22900, -12939, 1844.00000, -209.00000, 918.00000, 1.44806, 0.25024, 0.09155, -97.32450, 21.22900, -4813044, 1829.00000, -210.00000, 930.00000, 1.57013, -0.11597, -0.15259, -97.17500, 20.63100, -13084, 1827.00000, -215.00000, 924.00000, 1.38702, -0.17700, -0.03052, -99.56700, 18.98650, -13124, 1838.00000, -214.00000, 913.00000, 1.38702, 0.00610, 0.03052, -101.06200, 17.64100, -413164, 1832.00000, -207.00000, 917.00000, 1.50909, -0.05493, -0.03052, -103.45399, 17.49150, 13204, 1827.00000, -213.00000, 925.00000, 1.44806, 0.37231, 0.15259, -103.45399, 17.49150, -413268, 1823.00000, -212.00000, 931.00000, 1.57013, 0.12817, 0.03052, -103.45399, 17.49150, -413308, 1834.00000, -209.00000, 923.00000, 1.57013, -0.05493, -0.15259, -102.25800, 18.83700, 13348, 1833.00000, -213.00000, 918.00000, 1.44806, 0.06714, 0.03052, -102.40750, 18.68750, -413388, 1835.00000, -214.00000, 917.00000, 1.50909, 0.06714, -0.09155, -102.40750, 18.68750, -13428, 1834.00000, -213.00000, 923.00000, 1.38702, 0.12817, 0.09155, -102.55700, 18.83700, -413548, 1830.00000, -208.00000, 923.00000, 1.50909, 0.00610, -0.03052, -97.02550, 20.93000, -513588, 1837.00000, -211.00000, 916.00000, 1.50909, 0.06714, -0.03052, -97.02550, 20.93000, -513628, 1832.00000, -213.00000, 923.00000, 1.50909, 0.18921, -0.03052, -97.02550, 20.93000, -513668, 1830.00000, -217.00000, 927.00000, 1.44806, 0.31128, 0.09155, -101.66000, 16.44500, -45.44800
12859, 1838.00000, -208.00000, 924.00000, 1.38702, 0.31128, 0.09155, -97.32450, 21.22900, -4812899, 1833.00000, -217.00000, 916.00000, 1.75323, -0.23804, -0.33569, -97.32450, 21.22900, -12939, 1844.00000, -209.00000, 918.00000, 1.44806, 0.25024, 0.09155, -97.32450, 21.22900, -4813044, 1829.00000, -210.00000, 930.00000, 1.57013, -0.11597, -0.15259, -97.17500, 20.63100, -13084, 1827.00000, -215.00000, 924.00000, 1.38702, -0.17700, -0.03052, -99.56700, 18.98650, -13124, 1838.00000, -214.00000, 913.00000, 1.38702, 0.00610, 0.03052, -101.06200, 17.64100, -413164, 1832.00000, -207.00000, 917.00000, 1.50909, -0.05493, -0.03052, -103.45399, 17.49150, 13204, 1827.00000, -213.00000, 925.00000, 1.44806, 0.37231, 0.15259, -103.45399, 17.49150, -413268, 1823.00000, -212.00000, 931.00000, 1.57013, 0.12817, 0.03052, -103.45399, 17.49150, -413308, 1834.00000, -209.00000, 923.00000, 1.57013, -0.05493, -0.15259, -102.25800, 18.83700, 13348, 1833.00000, -213.00000, 918.00000, 1.44806, 0.06714, 0.03052, -102.40750, 18.68750, -413388, 1835.00000, -214.00000, 917.00000, 1.50909, 0.06714, -0.09155, -102.40750, 18.68750, -13428, 1834.00000, -213.00000, 923.00000, 1.38702, 0.12817, 0.09155, -102.55700, 18.83700, -413548, 1830.00000, -208.00000, 923.00000, 1.50909, 0.00610, -0.03052, -97.02550, 20.93000, -513588, 1837.00000, -211.00000, 916.00000, 1.50909, 0.06714, -0.03052, -97.02550, 20.93000, -513628, 1832.00000, -213.00000, 923.00000, 1.50909, 0.18921, -0.03052, -97.02550, 20.93000, -513668, 1830.00000, -217.00000, 927.00000, 1.44806, 0.31128, 0.09155, -101.66000, 16.44500, -45.44800
12899, 1833.00000, -217.00000, 916.00000, 1.75323, -0.23804, -0.33569, -97.32450, 21.22900, -12939, 1844.00000, -209.00000, 918.00000, 1.44806, 0.25024, 0.09155, -97.32450, 21.22900, -4813044, 1829.00000, -210.00000, 930.00000, 1.57013, -0.11597, -0.15259, -97.17500, 20.63100, -13084, 1827.00000, -215.00000, 924.00000, 1.38702, -0.17700, -0.03052, -99.56700, 18.98650, -13124, 1838.00000, -214.00000, 913.00000, 1.38702, 0.00610, 0.03052, -101.06200, 17.64100, -413164, 1832.00000, -207.00000, 917.00000, 1.50909, -0.05493, -0.03052, -103.45399, 17.49150, 13204, 1827.00000, -213.00000, 925.00000, 1.44806, 0.37231, 0.15259, -103.45399, 17.49150, -413268, 1823.00000, -212.00000, 931.00000, 1.57013, 0.12817, 0.03052, -103.45399, 17.49150, -413308, 1834.00000, -209.00000, 923.00000, 1.57013, -0.05493, -0.15259, -102.25800, 18.83700, 13348, 1833.00000, -213.00000, 918.00000, 1.44806, 0.06714, 0.03052, -102.40750, 18.68750, -413388, 1835.00000, -214.00000, 917.00000, 1.50909, 0.06714, -0.09155, -102.40750, 18.68750, -13428, 1834.00000, -213.00000, 923.00000, 1.38702, 0.12817, 0.09155, -102.55700, 18.83700, -413548, 1830.00000, -208.00000, 923.00000, 1.50909, 0.00610, -0.03052, -97.02550, 20.93000, -513588, 1837.00000, -211.00000, 916.00000, 1.50909, 0.06714, -0.03052, -97.02550, 20.93000, -513628, 1832.00000, -213.00000, 923.00000, 1.50909, 0.18921, -0.03052, -97.02550, 20.93000, -513668, 1830.00000, -217.00000, 927.00000, 1.44806, 0.31128, 0.09155, -101.66000, 16.44500, -45.44800
12939, 1844.00000, -209.00000, 918.00000, 1.44806, 0.25024, 0.09155, -97.32450, 21.22900, -4813044, 1829.00000, -210.00000, 930.00000, 1.57013, -0.11597, -0.15259, -97.17500, 20.63100, -13084, 1827.00000, -215.00000, 924.00000, 1.38702, -0.17700, -0.03052, -99.56700, 18.98650, -13124, 1838.00000, -214.00000, 913.00000, 1.38702, 0.00610, 0.03052, -101.06200, 17.64100, -413164, 1832.00000, -207.00000, 917.00000, 1.50909, -0.05493, -0.03052, -103.45399, 17.49150, 13204, 1827.00000, -213.00000, 925.00000, 1.44806, 0.37231, 0.15259, -103.45399, 17.49150, -413268, 1823.00000, -212.00000, 931.00000, 1.57013, 0.12817, 0.03052, -103.45399, 17.49150, -413308, 1834.00000, -209.00000, 923.00000, 1.57013, -0.05493, -0.15259, -102.25800, 18.83700, 13348, 1833.00000, -213.00000, 918.00000, 1.44806, 0.06714, 0.03052, -102.40750, 18.68750, -413388, 1835.00000, -214.00000, 917.00000, 1.50909, 0.06714, -0.09155, -102.40750, 18.68750, -13428, 1834.00000, -213.00000, 923.00000, 1.38702, 0.12817, 0.09155, -102.55700, 18.83700, -413548, 1830.00000, -208.00000, 923.00000, 1.50909, 0.00610, -0.03052, -97.02550, 20.93000, -513588, 1837.00000, -211.00000, 916.00000, 1.50909, 0.06714, -0.03052, -97.02550, 20.93000, -513628, 1832.00000, -213.00000, 923.00000, 1.50909, 0.18921, -0.03052, -97.02550, 20.93000, -513668, 1830.00000, -217.00000, 927.00000, 1.44806, 0.31128, 0.09155, -101.66000, 16.44500, -45.44800
13044, 1829.00000, -210.00000, 930.00000, 1.57013, -0.11597, -0.15259, -97.17500, 20.63100, -13084, 1827.00000, -215.00000, 924.00000, 1.38702, -0.17700, -0.03052, -99.56700, 18.98650, -13124, 1838.00000, -214.00000, 913.00000, 1.38702, 0.00610, 0.03052, -101.06200, 17.64100, -413164, 1832.00000, -207.00000, 917.00000, 1.50909, -0.05493, -0.03052, -103.45399, 17.49150, 13204, 1827.00000, -213.00000, 925.00000, 1.44806, 0.37231, 0.15259, -103.45399, 17.49150, -413268, 1823.00000, -212.00000, 931.00000, 1.57013, 0.12817, 0.03052, -103.45399, 17.49150, -413308, 1834.00000, -209.00000, 923.00000, 1.57013, -0.05493, -0.15259, -102.25800, 18.83700, 13348, 1833.00000, -213.00000, 918.00000, 1.44806, 0.06714, 0.03052, -102.40750, 18.68750, -413388, 1835.00000, -214.00000, 917.00000, 1.50909, 0.06714, -0.09155, -102.40750, 18.68750, -13428, 1834.00000, -213.00000, 923.00000, 1.38702, 0.12817, 0.09155, -102.55700, 18.83700, -413548, 1830.00000, -208.00000, 923.00000, 1.50909, 0.00610, -0.03052, -97.02550, 20.93000, -513588, 1837.00000, -211.00000, 916.00000, 1.50909, 0.06714, -0.03052, -97.02550, 20.93000, -513628, 1832.00000, -213.00000, 923.00000, 1.50909, 0.18921, -0.03052, -97.02550, 20.93000, -513668, 1830.00000, -217.00000, 927.00000, 1.44806, 0.31128, 0.09155, -101.66000, 16.44500, -45.44800
13084, 1827.00000, -215.00000, 924.00000, 1.38702, -0.17700, -0.03052, -99.56700, 18.98650, -13124, 1838.00000, -214.00000, 913.00000, 1.38702, 0.00610, 0.03052, -101.06200, 17.64100, -413164, 1832.00000, -207.00000, 917.00000, 1.50909, -0.05493, -0.03052, -103.45399, 17.49150, 13204, 1827.00000, -213.00000, 925.00000, 1.44806, 0.37231, 0.15259, -103.45399, 17.49150, -413268, 1823.00000, -212.00000, 931.00000, 1.57013, 0.12817, 0.03052, -103.45399, 17.49150, -413308, 1834.00000, -209.00000, 923.00000, 1.57013, -0.05493, -0.15259, -102.25800, 18.83700, 13348, 1833.00000, -213.00000, 918.00000, 1.44806, 0.06714, 0.03052, -102.40750, 18.68750, -413388, 1835.00000, -214.00000, 917.00000, 1.50909, 0.06714, -0.09155, -102.40750, 18.68750, -13428, 1834.00000, -213.00000, 923.00000, 1.38702, 0.12817, 0.09155, -102.55700, 18.83700, -413548, 1830.00000, -208.00000, 923.00000, 1.50909, 0.00610, -0.03052, -97.02550, 20.93000, -513588, 1837.00000, -211.00000, 916.00000, 1.50909, 0.06714, -0.03052, -97.02550, 20.93000, -513628, 1832.00000, -213.00000, 923.00000, 1.50909, 0.18921, -0.03052, -97.02550, 20.93000, -513668, 1830.00000, -217.00000, 927.00000, 1.44806, 0.31128, 0.09155, -101.66000, 16.44500, -45.44800
13124, 1838.00000, -214.00000, 913.00000, 1.38702, 0.00610, 0.03052, -101.06200, 17.64100, -413164, 1832.00000, -207.00000, 917.00000, 1.50909, -0.05493, -0.03052, -103.45399, 17.49150, 13204, 1827.00000, -213.00000, 925.00000, 1.44806, 0.37231, 0.15259, -103.45399, 17.49150, -413268, 1823.00000, -212.00000, 931.00000, 1.57013, 0.12817, 0.03052, -103.45399, 17.49150, -413308, 1834.00000, -209.00000, 923.00000, 1.57013, -0.05493, -0.15259, -102.25800, 18.83700, 13348, 1833.00000, -213.00000, 918.00000, 1.44806, 0.06714, 0.03052, -102.40750, 18.68750, -413388, 1835.00000, -214.00000, 917.00000, 1.50909, 0.06714, -0.09155, -102.40750, 18.68750, -13428, 1834.00000, -213.00000, 923.00000, 1.38702, 0.12817, 0.09155, -102.55700, 18.83700, -413548, 1830.00000, -208.00000, 923.00000, 1.50909, 0.00610, -0.03052, -97.02550, 20.93000, -513588, 1837.00000, -211.00000, 916.00000, 1.50909, 0.06714, -0.03052, -97.02550, 20.93000, -513628, 1832.00000, -213.00000, 923.00000, 1.50909, 0.18921, -0.03052, -97.02550, 20.93000, -513668, 1830.00000, -217.00000, 927.00000, 1.44806, 0.31128, 0.09155, -101.66000, 16.44500, -45.44800
13164, 1832.00000, -207.00000, 917.00000, 1.50909, -0.05493, -0.03052, -103.45399, 17.49150, 13204, 1827.00000, -213.00000, 925.00000, 1.44806, 0.37231, 0.15259, -103.45399, 17.49150, -413268, 1823.00000, -212.00000, 931.00000, 1.57013, 0.12817, 0.03052, -103.45399, 17.49150, -413308, 1834.00000, -209.00000, 923.00000, 1.57013, -0.05493, -0.15259, -102.25800, 18.83700, 13348, 1833.00000, -213.00000, 918.00000, 1.44806, 0.06714, 0.03052, -102.40750, 18.68750, -413388, 1835.00000, -214.00000, 917.00000, 1.50909, 0.06714, -0.09155, -102.40750, 18.68750, -13428, 1834.00000, -213.00000, 923.00000, 1.38702, 0.12817, 0.09155, -102.55700, 18.83700, -413548, 1830.00000, -208.00000, 923.00000, 1.50909, 0.00610, -0.03052, -97.02550, 20.93000, -513588, 1837.00000, -211.00000, 916.00000, 1.50909, 0.06714, -0.03052, -97.02550, 20.93000, -513628, 1832.00000, -213.00000, 923.00000, 1.50909, 0.18921, -0.03052, -97.02550, 20.93000, -513668, 1830.00000, -217.00000, 927.00000, 1.44806, 0.31128, 0.09155, -101.66000, 16.44500, -45.44800
13204, 1827.00000, -213.00000, 925.00000, 1.44806, 0.37231, 0.15259, -103.45399, 17.49150, -413268, 1823.00000, -212.00000, 931.00000, 1.57013, 0.12817, 0.03052, -103.45399, 17.49150, -413308, 1834.00000, -209.00000, 923.00000, 1.57013, -0.05493, -0.15259, -102.25800, 18.83700, 13348, 1833.00000, -213.00000, 918.00000, 1.44806, 0.06714, 0.03052, -102.40750, 18.68750, -413388, 1835.00000, -214.00000, 917.00000, 1.50909, 0.06714, -0.09155, -102.40750, 18.68750, -13428, 1834.00000, -213.00000, 923.00000, 1.38702, 0.12817, 0.09155, -102.55700, 18.83700, -413548, 1830.00000, -208.00000, 923.00000, 1.50909, 0.00610, -0.03052, -97.02550, 20.93000, -513588, 1837.00000, -211.00000, 916.00000, 1.50909, 0.06714, -0.03052, -97.02550, 20.93000, -513628, 1832.00000, -213.00000, 923.00000, 1.50909, 0.18921, -0.03052, -97.02550, 20.93000, -513668, 1830.00000, -217.00000, 927.00000, 1.44806, 0.31128, 0.09155, -101.66000, 16.44500, -45.44800
13268, 1823.00000, -212.00000, 931.00000, 1.57013, 0.12817, 0.03052, -103.45399, 17.49150, -413308, 1834.00000, -209.00000, 923.00000, 1.57013, -0.05493, -0.15259, -102.25800, 18.83700, 13348, 1833.00000, -213.00000, 918.00000, 1.44806, 0.06714, 0.03052, -102.40750, 18.68750, -413388, 1835.00000, -214.00000, 917.00000, 1.50909, 0.06714, -0.09155, -102.40750, 18.68750, -13428, 1834.00000, -213.00000, 923.00000, 1.38702, 0.12817, 0.09155, -102.55700, 18.83700, -413548, 1830.00000, -208.00000, 923.00000, 1.50909, 0.00610, -0.03052, -97.02550, 20.93000, -513588, 1837.00000, -211.00000, 916.00000, 1.50909, 0.06714, -0.03052, -97.02550, 20.93000, -513628, 1832.00000, -213.00000, 923.00000, 1.50909, 0.18921, -0.03052, -97.02550, 20.93000, -513668, 1830.00000, -217.00000, 927.00000, 1.44806, 0.31128, 0.09155, -101.66000, 16.44500, -45.44800
13308, 1834.00000, -209.00000, 923.00000, 1.57013, -0.05493, -0.15259, -102.25800, 18.83700, 13348, 1833.00000, -213.00000, 918.00000, 1.44806, 0.06714, 0.03052, -102.40750, 18.68750, -413388, 1835.00000, -214.00000, 917.00000, 1.50909, 0.06714, -0.09155, -102.40750, 18.68750, -13428, 1834.00000, -213.00000, 923.00000, 1.38702, 0.12817, 0.09155, -102.55700, 18.83700, -413548, 1830.00000, -208.00000, 923.00000, 1.50909, 0.00610, -0.03052, -97.02550, 20.93000, -513588, 1837.00000, -211.00000, 916.00000, 1.50909, 0.06714, -0.03052, -97.02550, 20.93000, -513628, 1832.00000, -213.00000, 923.00000, 1.50909, 0.18921, -0.03052, -97.02550, 20.93000, -513668, 1830.00000, -217.00000, 927.00000, 1.44806, 0.31128, 0.09155, -101.66000, 16.44500, -45.44800
13348, 1833.00000, -213.00000, 918.00000, 1.44806, 0.06714, 0.03052, -102.40750, 18.68750, -413388, 1835.00000, -214.00000, 917.00000, 1.50909, 0.06714, -0.09155, -102.40750, 18.68750, -13428, 1834.00000, -213.00000, 923.00000, 1.38702, 0.12817, 0.09155, -102.55700, 18.83700, -413548, 1830.00000, -208.00000, 923.00000, 1.50909, 0.00610, -0.03052, -97.02550, 20.93000, -513588, 1837.00000, -211.00000, 916.00000, 1.50909, 0.06714, -0.03052, -97.02550, 20.93000, -513628, 1832.00000, -213.00000, 923.00000, 1.50909, 0.18921, -0.03052, -97.02550, 20.93000, -513668, 1830.00000, -217.00000, 927.00000, 1.44806, 0.31128, 0.09155, -101.66000, 16.44500, -45.44800
