//--------- NEW START ---------//
// Drifter number: 1, Battery: 3.61
// IMU_update: 40 ms, GPS_update: 250 ms, Transciever_update: 8000 ms
// Accel_range: 16G, Gyro_range: 2000 dps
IMUtime, Ax, Ay, Az, Gx, Gy, Gz, Mx, My, Mz, P, T
8715, -220.00000, -203.00000, 2085.00000, 1.44806, 0.06714, 0.03052, -100.46400, 0.89700, 23.47150

8755, -222.00000, -204.00000, 2085.00000, 1.20392, -0.66528, -0.09155, -100.46400, 0.89700, 23.47150

8795, -213.00000, -207.00000, 2084.00000, 1.14288, -0.78735, -0.09155, -100.46400, 0.89700, 23.47150

8835, -212.00000, -203.00000, 2085.00000, 1.63116, 0.43335, 0.09155, -100.46400, 0.89700, 23.47150

8795, -213.00000, -207.00000, 2084.00000, 1.14288, -0.78735, -0.09155, -100.46400, 0.89700, 23.47150

8835, -212.00000, -203.00000, 2085.00000, 1.63116, 0.43335, 0.09155, -100.46400, 0.89700, 23.47150

8835, -212.00000, -203.00000, 2085.00000, 1.63116, 0.43335, 0.09155, -100.46400, 0.89700, 23.47150

8875, -215.00000, -205.00000, 2087.00000, 1.87531, 1.04370, 0.15259, -100.16500, -0.74750, 23.02300

8915, -221.00000, -200.00000, 2089.00000, 1.38702, 0.18921, 0.03052, -99.56700, -0.74750, 21.52800

8955, -216.00000, -203.00000, 2088.00000, 1.14288, -0.72632, -0.09155, -100.76300, 0.44850, 22.126008995, -210.00000, -203.00000, 2086.00000, 1.26495, -0.36011, 0.03052, -100.76300, 0.44850, 22.12600

8995, -210.00000, -203.00000, 2086.00000, 1.26495, -0.36011, 0.03052, -100.76300, 0.44850, 22.12600

9035, -212.00000, -208.00000, 2087.00000, 1.69220, 0.61646, 0.09155, -100.76300, 2.69100, 21.82700

9075, -216.00000, -201.00000, 2088.00000, 1.75323, 0.55542, 0.03052, -100.16500, 1.49500, 22.72400

9115, -219.00000, -204.00000, 2086.00000, 1.44806, -0.05493, 0.03052, -100.16500, 1.49500, 22.72400

9155, -217.00000, -202.00000, 2087.00000, 1.44806, -0.11597, 0.09155, -100.16500, 1.49500, 22.72400

9195, -215.00000, -202.00000, 2087.00000, 1.38702, -0.05493, 0.03052, -100.16500, 1.49500, 22.72400

9246, -210.00000, -201.00000, 2088.00000, 1.38702, -0.17700, 0.09155, -96.72650, 6.87700, 22.12600

9286, -216.00000, -205.00000, 2087.00000, 1.63116, 0.25024, 0.09155, -96.72650, 6.87700, 22.12600

9326, -217.00000, -203.00000, 2086.00000, 1.69220, 0.49438, 0.09155, -100.61349, 0.74750, 21.52800

9366, -219.00000, -206.00000, 2086.00000, 1.44806, -0.05493, -0.03052, -100.16500, 1.04650, 22.275509406, -213.00000, -203.00000, 2090.00000, 1.32599, -0.36011, 0.03052, -98.81950, 0.29900, 23.02300

9406, -213.00000, -203.00000, 2090.00000, 1.32599, -0.36011, 0.03052, -98.81950, 0.29900, 23.02300

9446, -210.00000, -204.00000, 2089.00000, 1.50909, 0.12817, 0.03052, -98.81950, 0.29900, 23.02300

9494, -216.00000, -203.00000, 2087.00000, 1.63116, 0.55542, 0.09155, -98.81950, 0.29900, 23.02300

9534, -214.00000, -203.00000, 2085.00000, 1.44806, 0.12817, -0.03052, -98.81950, 0.29900, 23.02300

9574, -217.00000, -202.00000, 2084.00000, 1.26495, -0.29907, 0.03052, -99.56700, 1.49500, 22.27550

9614, -218.00000, -206.00000, 2089.00000, 1.50909, 0.25024, 0.09155, -99.86600, 0.74750, 22.27550

9654, -217.00000, -205.00000, 2087.00000, 1.57013, 0.49438, 0.09155, -99.71650, 0.89700, 23.17250

9694, -217.00000, -205.00000, 2087.00000, 1.38702, -0.23804, -0.03052, -99.26800, 2.69100, 22.12600

9748, -211.00000, -205.00000, 2091.00000, 1.50909, 0.18921, 0.03052, -99.11850, 3.73750, 22.27550

9788, -216.00000, -201.00000, 2088.00000, 1.75323, 0.55542, 0.09155, -99.11850, 3.73750, 22.27550

9828, -217.00000, -202.00000, 2084.00000, 1.44806, 0.06714, 0.03052, -99.11850, 3.73750, 22.27550

9868, -214.00000, -205.00000, 2088.00000, 1.20392, -0.42114, 0.03052, -99.11850, 3.73750, 22.27550

9908, -214.00000, -206.00000, 2090.00000, 1.32599, 0.00610, 0.09155, -99.56700, 1.04650, 22.72400

9948, -212.00000, -206.00000, 2086.00000, 1.69220, 0.55542, 0.03052, -100.01550, 0.44850, 22.12600

9997, -216.00000, -205.00000, 2090.00000, 1.57013, 0.18921, 0.03052, -98.07200, 4.03650, 23.02300

10037, -220.00000, -203.00000, 2084.00000, 1.32599, -0.42114, -0.03052, -99.26800, -0.14950, 21.079510077, -215.00000, -206.00000, 2086.00000, 1.50909, -0.05493, 0.03052, -99.26800, -0.14950, 21.0795010117, -215.00000, -204.00000, 2085.00000, 1.57013, 0.31128, 0.09155, -100.46400, 1.19600, 22.87350

10077, -215.00000, -206.00000, 2086.00000, 1.50909, -0.05493, 0.03052, -99.26800, -0.14950, 21.0795010117, -215.00000, -204.00000, 2085.00000, 1.57013, 0.31128, 0.09155, -100.46400, 1.19600, 22.87350

10117, -215.00000, -204.00000, 2085.00000, 1.57013, 0.31128, 0.09155, -100.46400, 1.19600, 22.87350

10157, -218.00000, -205.00000, 2089.00000, 1.50909, 0.25024, -0.03052, -100.46400, 1.19600, 22.8735010197, -215.00000, -203.00000, 2088.00000, 1.50909, 0.00610, 0.03052, -100.46400, 1.19600, 22.87350

10197, -215.00000, -203.00000, 2088.00000, 1.50909, 0.00610, 0.03052, -100.46400, 1.19600, 22.87350

10248, -215.00000, -202.00000, 2087.00000, 1.50909, 0.12817, 0.03052, -97.92250, 4.93350, 22.87350

10288, -215.00000, -204.00000, 2088.00000, 1.44806, 0.00610, 0.09155, -100.01550, 0.89700, 21.37850

10328, -213.00000, -204.00000, 2085.00000, 1.38702, -0.05493, 0.03052, -100.01550, 0.89700, 21.3785010368, -216.00000, -203.00000, 2087.00000, 1.44806, 0.06714, -0.03052, -101.06200, 0.14950, 23.4715010408, -216.00000, -205.00000, 2089.00000, 1.38702, 0.12817, 0.03052, -100.61349, 1.49500, 23.32200

10368, -216.00000, -203.00000, 2087.00000, 1.44806, 0.06714, -0.03052, -101.06200, 0.14950, 23.4715010408, -216.00000, -205.00000, 2089.00000, 1.38702, 0.12817, 0.03052, -100.61349, 1.49500, 23.32200

10408, -216.00000, -205.00000, 2089.00000, 1.38702, 0.12817, 0.03052, -100.61349, 1.49500, 23.32200

10448, -216.00000, -203.00000, 2086.00000, 1.50909, 0.25024, 0.03052, -99.86600, 0.74750, 23.77050

10498, -215.00000, -204.00000, 2086.00000, 1.44806, 0.06714, 0.03052, -99.86600, 0.74750, 23.77050

10538, -217.00000, -201.00000, 2088.00000, 1.32599, -0.11597, 0.03052, -99.86600, 0.74750, 23.77050

10578, -215.00000, -202.00000, 2088.00000, 1.44806, 0.00610, -0.09155, -99.86600, 1.04650, 22.72400

10618, -218.00000, -205.00000, 2087.00000, 1.57013, 0.25024, 0.03052, -99.86600, 1.04650, 22.72400

10658, -215.00000, -204.00000, 2087.00000, 1.50909, 0.25024, 0.03052, -100.01550, 1.64450, 22.12600

10698, -216.00000, -204.00000, 2089.00000, 1.44806, 0.00610, -0.03052, -100.61349, 0.74750, 22.2755010748, -216.00000, -201.00000, 2089.00000, 1.44806, 0.00610, 0.09155, -98.22150, 3.43850, 20.33200

10748, -216.00000, -201.00000, 2089.00000, 1.44806, 0.00610, 0.09155, -98.22150, 3.43850, 20.33200

10788, -215.00000, -203.00000, 2089.00000, 1.44806, 0.12817, 0.03052, -100.61349, 1.79400, 21.22900

10828, -218.00000, -205.00000, 2085.00000, 1.50909, 0.18921, 0.03052, -100.61349, 1.79400, 21.22900

10868, -217.00000, -203.00000, 2086.00000, 1.44806, 0.12817, 0.03052, -100.61349, 1.79400, 21.22900

10908, -214.00000, -204.00000, 2085.00000, 1.38702, 0.18921, 0.03052, -100.61349, 1.79400, 21.22900

10948, -216.00000, -202.00000, 2088.00000, 1.44806, 0.12817, 0.03052, -98.52050, -0.14950, 23.17250

10998, -217.00000, -203.00000, 2088.00000, 1.44806, -0.11597, 0.03052, -101.06200, 1.19600, 22.4250011038, -215.00000, -205.00000, 2087.00000, 1.44806, 0.00610, 0.03052, -99.11850, 0.74750, 21.52800

11038, -215.00000, -205.00000, 2087.00000, 1.44806, 0.00610, 0.03052, -99.11850, 0.74750, 21.52800

11078, -216.00000, -205.00000, 2086.00000, 1.44806, 0.06714, 0.09155, -99.26800, 1.19600, 21.07950

11118, -216.00000, -204.00000, 2086.00000, 1.63116, 0.25024, 0.03052, -99.26800, 1.19600, 21.07950

11158, -215.00000, -203.00000, 2084.00000, 1.57013, 0.37231, 0.09155, -100.46400, 0.44850, 22.12600

11198, -215.00000, -202.00000, 2085.00000, 1.38702, -0.05493, -0.09155, -100.46400, 0.44850, 22.126011250, -215.00000, -203.00000, 2091.00000, 1.32599, -0.17700, -0.03052, -100.46400, 0.44850, 22.126011290, -213.00000, -205.00000, 2088.00000, 1.63116, 0.31128, 0.03052, -100.16500, -1.04650, 21.2290011330, -209.00000, -203.00000, 2088.00000, 1.63116, 0.49438, 0.09155, -100.61349, 0.00000, 21.97650

11250, -215.00000, -203.00000, 2091.00000, 1.32599, -0.17700, -0.03052, -100.46400, 0.44850, 22.126011290, -213.00000, -205.00000, 2088.00000, 1.63116, 0.31128, 0.03052, -100.16500, -1.04650, 21.2290011330, -209.00000, -203.00000, 2088.00000, 1.63116, 0.49438, 0.09155, -100.61349, 0.00000, 21.97650

11290, -213.00000, -205.00000, 2088.00000, 1.63116, 0.31128, 0.03052, -100.16500, -1.04650, 21.2290011330, -209.00000, -203.00000, 2088.00000, 1.63116, 0.49438, 0.09155, -100.61349, 0.00000, 21.97650

11330, -209.00000, -203.00000, 2088.00000, 1.63116, 0.49438, 0.09155, -100.61349, 0.00000, 21.97650

11370, -213.00000, -202.00000, 2087.00000, 1.38702, -0.11597, 0.09155, -99.56700, 0.29900, 22.72400

11410, -210.00000, -200.00000, 2087.00000, 1.26495, -0.17700, 0.03052, -99.56700, 0.29900, 22.72400

11450, -212.00000, -203.00000, 2085.00000, 1.57013, 0.31128, 0.03052, -101.06200, 1.64450, 22.12600

11497, -214.00000, -202.00000, 2090.00000, 1.63116, 0.25024, 0.03052, -99.86600, 1.79400, 23.32200

11537, -214.00000, -203.00000, 2090.00000, 1.32599, -0.23804, 0.03052, -99.86600, 1.79400, 23.32200

11577, -212.00000, -207.00000, 2088.00000, 1.38702, -0.11597, 0.09155, -99.86600, 1.79400, 23.32200

11617, -209.00000, -205.00000, 2086.00000, 1.50909, 0.31128, 0.09155, -101.36100, 0.29900, 21.52800

11657, -213.00000, -203.00000, 2087.00000, 1.57013, 0.37231, 0.09155, -101.36100, 0.29900, 21.52800

11697, -217.00000, -204.00000, 2089.00000, 1.50909, 0.06714, 0.03052, -101.36100, -0.74750, 23.0230011748, -213.00000, -202.00000, 2089.00000, 1.38702, -0.11597, 0.09155, -100.61349, 0.00000, 23.0230011788, -210.00000, -200.00000, 2089.00000, 1.44806, 0.00610, 0.03052, -100.76300, 1.64450, 21.37850

11748, -213.00000, -202.00000, 2089.00000, 1.38702, -0.11597, 0.09155, -100.61349, 0.00000, 23.0230011788, -210.00000, -200.00000, 2089.00000, 1.44806, 0.00610, 0.03052, -100.76300, 1.64450, 21.37850

11788, -210.00000, -200.00000, 2089.00000, 1.44806, 0.00610, 0.03052, -100.76300, 1.64450, 21.37850

11828, -209.00000, -201.00000, 2090.00000, 1.26495, -0.11597, 0.03052, -101.36100, 1.49500, 22.7240011868, -212.00000, -207.00000, 2088.00000, 1.50909, 0.00610, 0.03052, -101.36100, 1.49500, 22.72400

11868, -212.00000, -207.00000, 2088.00000, 1.50909, 0.00610, 0.03052, -101.36100, 1.49500, 22.72400

11908, -213.00000, -204.00000, 2089.00000, 1.57013, 0.25024, 0.03052, -101.36100, 1.49500, 22.72400

11948, -215.00000, -204.00000, 2085.00000, 1.63116, 0.43335, 0.03052, -99.11850, -0.29900, 23.02300

11995, -218.00000, -206.00000, 2086.00000, 1.38702, -0.11597, 0.03052, -99.26800, 0.44850, 22.87350

12035, -214.00000, -200.00000, 2089.00000, 1.32599, -0.29907, 0.03052, -99.56700, 0.29900, 21.97650

12075, -213.00000, -205.00000, 2088.00000, 1.50909, 0.06714, 0.03052, -99.71650, 1.19600, 22.42500

12115, -217.00000, -207.00000, 2085.00000, 1.44806, 0.12817, 0.03052, -98.96900, 1.94350, 22.87350

12155, -214.00000, -203.00000, 2086.00000, 1.38702, 0.06714, 0.09155, -98.96900, 1.94350, 22.87350

12195, -217.00000, -206.00000, 2085.00000, 1.63116, 0.49438, 0.09155, -99.56700, 2.54150, 22.72400

12276, -218.00000, -204.00000, 2086.00000, 1.20392, -0.36011, 0.03052, -97.47400, 5.38200, 22.42500

12316, -210.00000, -204.00000, 2089.00000, 1.08185, -0.72632, -0.09155, -100.76300, 0.14950, 23.172512356, -210.00000, -206.00000, 2086.00000, 1.44806, 0.18921, 0.03052, -101.36100, 0.00000, 23.02300

12356, -210.00000, -206.00000, 2086.00000, 1.44806, 0.18921, 0.03052, -101.36100, 0.00000, 23.02300

12396, -214.00000, -203.00000, 2086.00000, 1.81427, 1.10474, 0.15259, -101.36100, 0.00000, 23.02300

12436, -219.00000, -204.00000, 2086.00000, 1.63116, 0.31128, 0.09155, -100.61349, 1.04650, 23.02300

12641, -216.00000, -202.00000, 2084.00000, 1.26495, -0.29907, -0.03052, -97.47400, 6.12950, 20.6310012681, -214.00000, -206.00000, 2084.00000, 1.57013, 0.25024, 0.09155, -98.52050, 1.19600, 22.42500

12681, -214.00000, -206.00000, 2084.00000, 1.57013, 0.25024, 0.09155, -98.52050, 1.19600, 22.42500

12876, -217.00000, -201.00000, 2085.00000, 1.99738, 1.28784, 0.21362, -98.52050, 3.13950, 22.42500

12916, -221.00000, -203.00000, 2089.00000, 1.38702, -0.11597, 0.03052, -98.52050, 3.13950, 22.42500

12956, -215.00000, -206.00000, 2090.00000, 0.89874, -1.09253, -0.15259, -98.52050, 3.13950, 22.4250013023, -214.00000, -205.00000, 2085.00000, 1.81427, 0.92163, 0.09155, -98.07200, 5.53150, 22.27550

13023, -214.00000, -205.00000, 2085.00000, 1.81427, 0.92163, 0.09155, -98.07200, 5.53150, 22.27550

13063, -219.00000, -203.00000, 2088.00000, 1.81427, 0.92163, 0.15259, -100.46400, 0.44850, 22.87350

13103, -217.00000, -206.00000, 2087.00000, 1.26495, -0.42114, -0.09155, -100.91250, 0.29900, 21.229013143, -212.00000, -206.00000, 2085.00000, 1.14288, -0.42114, -0.03052, -100.91250, 0.29900, 21.229013183, -210.00000, -205.00000, 2084.00000, 1.50909, 0.31128, 0.09155, -99.71650, 0.89700, 22.87350

13143, -212.00000, -206.00000, 2085.00000, 1.14288, -0.42114, -0.03052, -100.91250, 0.29900, 21.229013183, -210.00000, -205.00000, 2084.00000, 1.50909, 0.31128, 0.09155, -99.71650, 0.89700, 22.87350

13183, -210.00000, -205.00000, 2084.00000, 1.50909, 0.31128, 0.09155, -99.71650, 0.89700, 22.87350

13251, -216.00000, -201.00000, 2086.00000, 1.50909, 0.18921, 0.09155, -97.17500, 5.38200, 21.82700

13310, -217.00000, -201.00000, 2086.00000, 1.50909, 0.18921, 0.09155, -97.17500, 5.38200, 21.82700

13350, -218.00000, -203.00000, 2088.00000, 1.50909, 0.31128, 0.03052, -100.16500, 1.79400, 21.97650

13390, -215.00000, -204.00000, 2086.00000, 1.44806, -0.17700, -0.03052, -100.16500, 1.79400, 21.976513430, -210.00000, -206.00000, 2086.00000, 1.20392, -0.48218, 0.03052, -100.76300, 0.89700, 22.8735013470, -212.00000, -209.00000, 2086.00000, 1.44806, 0.12817, 0.15259, -99.56700, 0.74750, 23.02300

13430, -210.00000, -206.00000, 2086.00000, 1.20392, -0.48218, 0.03052, -100.76300, 0.89700, 22.8735013470, -212.00000, -209.00000, 2086.00000, 1.44806, 0.12817, 0.15259, -99.56700, 0.74750, 23.02300

13470, -212.00000, -209.00000, 2086.00000, 1.44806, 0.12817, 0.15259, -99.56700, 0.74750, 23.02300

13554, -217.00000, -202.00000, 2087.00000, 1.50909, 0.12817, 0.09155, -96.42750, 6.12950, 21.82700

13594, -216.00000, -205.00000, 2089.00000, 1.20392, -0.48218, -0.09155, -96.42750, 6.12950, 21.8270013634, -211.00000, -206.00000, 2089.00000, 1.38702, -0.11597, 0.03052, -96.42750, 6.12950, 21.82700

13634, -211.00000, -206.00000, 2089.00000, 1.38702, -0.11597, 0.03052, -96.42750, 6.12950, 21.82700

13674, -212.00000, -206.00000, 2090.00000, 1.63116, 0.61646, 0.09155, -96.42750, 6.12950, 21.82700

13714, -214.00000, -201.00000, 2087.00000, 1.57013, 0.43335, 0.03052, -100.46400, 0.44850, 22.87350

13831, -211.00000, -207.00000, 2086.00000, 2.18048, 1.83716, 0.15259, -98.52050, 7.17600, 21.82700

13871, -227.00000, -204.00000, 2085.00000, 2.54669, 2.50854, 0.27466, -96.27800, 5.98000, 23.32200

13911, -230.00000, -196.00000, 2087.00000, 1.02081, -0.84839, -0.03052, -99.11850, 1.79400, 23.3220013951, -210.00000, -203.00000, 2088.00000, 0.10529, -3.22876, -0.33569, -100.01550, 1.94350, 22.425013991, -201.00000, -213.00000, 2086.00000, 1.32599, -0.23804, -0.09155, -100.01550, 1.94350, 22.425014054, -217.00000, -207.00000, 2089.00000, 2.36359, 2.08130, 0.27466, -96.27800, 5.53150, 21.52800

13951, -210.00000, -203.00000, 2088.00000, 0.10529, -3.22876, -0.33569, -100.01550, 1.94350, 22.425013991, -201.00000, -213.00000, 2086.00000, 1.32599, -0.23804, -0.09155, -100.01550, 1.94350, 22.425014054, -217.00000, -207.00000, 2089.00000, 2.36359, 2.08130, 0.27466, -96.27800, 5.53150, 21.52800

13991, -201.00000, -213.00000, 2086.00000, 1.32599, -0.23804, -0.09155, -100.01550, 1.94350, 22.425014054, -217.00000, -207.00000, 2089.00000, 2.36359, 2.08130, 0.27466, -96.27800, 5.53150, 21.52800

14054, -217.00000, -207.00000, 2089.00000, 2.36359, 2.08130, 0.27466, -96.27800, 5.53150, 21.52800

14094, -223.00000, -203.00000, 2083.00000, 1.32599, -0.36011, -0.03052, -100.46400, 0.44850, 22.873514134, -216.00000, -204.00000, 2086.00000, 0.89874, -1.33667, -0.09155, -99.86600, 2.99000, 23.3220014174, -212.00000, -205.00000, 2084.00000, 1.69220, 0.55542, 0.09155, -99.86600, 2.99000, 23.32200

14134, -216.00000, -204.00000, 2086.00000, 0.89874, -1.33667, -0.09155, -99.86600, 2.99000, 23.3220014174, -212.00000, -205.00000, 2084.00000, 1.69220, 0.55542, 0.09155, -99.86600, 2.99000, 23.32200

14174, -212.00000, -205.00000, 2084.00000, 1.69220, 0.55542, 0.09155, -99.86600, 2.99000, 23.32200

14214, -216.00000, -207.00000, 2087.00000, 1.63116, 0.43335, 0.09155, -98.81950, 2.24250, 22.27550

14304, -208.00000, -208.00000, 2086.00000, 1.87531, 1.04370, 0.09155, -96.72650, 4.93350, 23.17250

14344, -226.00000, -203.00000, 2084.00000, 2.54669, 2.56958, 0.39673, -96.72650, 4.93350, 23.17250

14384, -226.00000, -200.00000, 2088.00000, 1.38702, -0.23804, 0.03052, -101.95900, 2.24250, 22.7240014424, -211.00000, -207.00000, 2086.00000, 0.10529, -3.10669, -0.39673, -101.95900, 2.24250, 22.72400

14424, -211.00000, -207.00000, 2086.00000, 0.10529, -3.10669, -0.39673, -101.95900, 2.24250, 22.72400

