//--------- NEW START ---------//
// Drifter number: 1, Battery: 3.61
// IMU_update: 40 ms, GPS_update: 250 ms, Transciever_update: 8000 ms
// Accel_range: 16G, Gyro_range: 2000 dps
IMUtime, Ax, Ay, Az, Gx, Gy, Gz, Mx, My, Mz, P, T
8234, 1833.00000, -206.00000, 916.00000, 1.50909, 0.18921, -0.03052, -102.70650, 17.94000, -48274, 1836.00000, -210.00000, 915.00000, 1.57013, 0.12817, -0.03052, -102.40750, 16.44500, -48314, 1836.00000, -208.00000, 915.00000, 1.50909, 0.06714, -0.03052, -100.91250, 16.44500, -48354, 1835.00000, -211.00000, 915.00000, 1.44806, 0.06714, 0.03052, -100.91250, 16.44500, -438394, 1837.00000, -209.00000, 915.00000, 1.44806, 0.06714, 0.09155, -101.80950, 18.38850, -438434, 1836.00000, -207.00000, 912.00000, 1.44806, 0.00610, 0.03052, -101.06200, 17.34200, -448474, 1836.00000, -206.00000, 915.00000, 1.57013, 0.00610, 0.03052, -101.06200, 17.34200, -428565, 1837.00000, -209.00000, 916.00000, 1.44806, 0.06714, -0.03052, -99.56700, 21.22900, -468605, 1837.00000, -210.00000, 916.00000, 1.44806, 0.00610, 0.03052, -99.56700, 21.22900, -46.8645, 1833.00000, -204.00000, 915.00000, 1.50909, -0.05493, 0.03052, -99.56700, 21.22900, -468685, 1835.00000, -205.00000, 915.00000, 1.50909, 0.06714, -0.03052, -103.00550, 18.83700, -48725, 1838.00000, -209.00000, 916.00000, 1.63116, 0.18921, -0.03052, -101.95900, 17.19250, -48796, 1832.00000, -205.00000, 912.00000, 1.38702, 0.06714, 0.09155, -95.68000, 21.07950, -48.8836, 1833.00000, -204.00000, 916.00000, 1.50909, 0.12817, 0.03052, -101.80950, 17.64100, -438876, 1835.00000, -209.00000, 915.00000, 1.57013, 0.18921, -0.03052, -102.70650, 17.19250, -48916, 1838.00000, -207.00000, 918.00000, 1.50909, 0.12817, -0.09155, -102.70650, 17.19250, -48956, 1837.00000, -211.00000, 916.00000, 1.44806, 0.12817, -0.03052, -102.70650, 17.19250, -49091, 1834.00000, -206.00000, 914.00000, 1.57013, 0.06714, 0.03052, -97.62350, 22.42500, -49.9131, 1835.00000, -208.00000, 914.00000, 1.50909, 0.18921, -0.03052, -102.25800, 17.64100, -49171, 1834.00000, -211.00000, 916.00000, 1.57013, 0.12817, -0.09155, -101.80950, 18.08950, -49211, 1838.00000, -211.00000, 914.00000, 1.38702, 0.00610, 0.03052, -102.25800, 18.83700, -439313, 1836.00000, -206.00000, 914.00000, 1.44806, 0.00610, 0.03052, -98.37099, 20.18250, -48.9353, 1831.00000, -208.00000, 914.00000, 1.50909, -0.05493, 0.03052, -101.66000, 16.74400, -49393, 1834.00000, -207.00000, 914.00000, 1.50909, 0.12817, 0.03052, -101.66000, 16.74400, -429433, 1837.00000, -206.00000, 915.00000, 1.44806, 0.12817, 0.03052, -102.40750, 17.19250, -44.25200

8274, 1836.00000, -210.00000, 915.00000, 1.57013, 0.12817, -0.03052, -102.40750, 16.44500, -48314, 1836.00000, -208.00000, 915.00000, 1.50909, 0.06714, -0.03052, -100.91250, 16.44500, -48354, 1835.00000, -211.00000, 915.00000, 1.44806, 0.06714, 0.03052, -100.91250, 16.44500, -438394, 1837.00000, -209.00000, 915.00000, 1.44806, 0.06714, 0.09155, -101.80950, 18.38850, -438434, 1836.00000, -207.00000, 912.00000, 1.44806, 0.00610, 0.03052, -101.06200, 17.34200, -448474, 1836.00000, -206.00000, 915.00000, 1.57013, 0.00610, 0.03052, -101.06200, 17.34200, -428565, 1837.00000, -209.00000, 916.00000, 1.44806, 0.06714, -0.03052, -99.56700, 21.22900, -468605, 1837.00000, -210.00000, 916.00000, 1.44806, 0.00610, 0.03052, -99.56700, 21.22900, -46.8645, 1833.00000, -204.00000, 915.00000, 1.50909, -0.05493, 0.03052, -99.56700, 21.22900, -468685, 1835.00000, -205.00000, 915.00000, 1.50909, 0.06714, -0.03052, -103.00550, 18.83700, -48725, 1838.00000, -209.00000, 916.00000, 1.63116, 0.18921, -0.03052, -101.95900, 17.19250, -48796, 1832.00000, -205.00000, 912.00000, 1.38702, 0.06714, 0.09155, -95.68000, 21.07950, -48.8836, 1833.00000, -204.00000, 916.00000, 1.50909, 0.12817, 0.03052, -101.80950, 17.64100, -438876, 1835.00000, -209.00000, 915.00000, 1.57013, 0.18921, -0.03052, -102.70650, 17.19250, -48916, 1838.00000, -207.00000, 918.00000, 1.50909, 0.12817, -0.09155, -102.70650, 17.19250, -48956, 1837.00000, -211.00000, 916.00000, 1.44806, 0.12817, -0.03052, -102.70650, 17.19250, -49091, 1834.00000, -206.00000, 914.00000, 1.57013, 0.06714, 0.03052, -97.62350, 22.42500, -49.9131, 1835.00000, -208.00000, 914.00000, 1.50909, 0.18921, -0.03052, -102.25800, 17.64100, -49171, 1834.00000, -211.00000, 916.00000, 1.57013, 0.12817, -0.09155, -101.80950, 18.08950, -49211, 1838.00000, -211.00000, 914.00000, 1.38702, 0.00610, 0.03052, -102.25800, 18.83700, -439313, 1836.00000, -206.00000, 914.00000, 1.44806, 0.00610, 0.03052, -98.37099, 20.18250, -48.9353, 1831.00000, -208.00000, 914.00000, 1.50909, -0.05493, 0.03052, -101.66000, 16.74400, -49393, 1834.00000, -207.00000, 914.00000, 1.50909, 0.12817, 0.03052, -101.66000, 16.74400, -429433, 1837.00000, -206.00000, 915.00000, 1.44806, 0.12817, 0.03052, -102.40750, 17.19250, -44.25200

8314, 1836.00000, -208.00000, 915.00000, 1.50909, 0.06714, -0.03052, -100.91250, 16.44500, -48354, 1835.00000, -211.00000, 915.00000, 1.44806, 0.06714, 0.03052, -100.91250, 16.44500, -438394, 1837.00000, -209.00000, 915.00000, 1.44806, 0.06714, 0.09155, -101.80950, 18.38850, -438434, 1836.00000, -207.00000, 912.00000, 1.44806, 0.00610, 0.03052, -101.06200, 17.34200, -448474, 1836.00000, -206.00000, 915.00000, 1.57013, 0.00610, 0.03052, -101.06200, 17.34200, -428565, 1837.00000, -209.00000, 916.00000, 1.44806, 0.06714, -0.03052, -99.56700, 21.22900, -468605, 1837.00000, -210.00000, 916.00000, 1.44806, 0.00610, 0.03052, -99.56700, 21.22900, -46.8645, 1833.00000, -204.00000, 915.00000, 1.50909, -0.05493, 0.03052, -99.56700, 21.22900, -468685, 1835.00000, -205.00000, 915.00000, 1.50909, 0.06714, -0.03052, -103.00550, 18.83700, -48725, 1838.00000, -209.00000, 916.00000, 1.63116, 0.18921, -0.03052, -101.95900, 17.19250, -48796, 1832.00000, -205.00000, 912.00000, 1.38702, 0.06714, 0.09155, -95.68000, 21.07950, -48.8836, 1833.00000, -204.00000, 916.00000, 1.50909, 0.12817, 0.03052, -101.80950, 17.64100, -438876, 1835.00000, -209.00000, 915.00000, 1.57013, 0.18921, -0.03052, -102.70650, 17.19250, -48916, 1838.00000, -207.00000, 918.00000, 1.50909, 0.12817, -0.09155, -102.70650, 17.19250, -48956, 1837.00000, -211.00000, 916.00000, 1.44806, 0.12817, -0.03052, -102.70650, 17.19250, -49091, 1834.00000, -206.00000, 914.00000, 1.57013, 0.06714, 0.03052, -97.62350, 22.42500, -49.9131, 1835.00000, -208.00000, 914.00000, 1.50909, 0.18921, -0.03052, -102.25800, 17.64100, -49171, 1834.00000, -211.00000, 916.00000, 1.57013, 0.12817, -0.09155, -101.80950, 18.08950, -49211, 1838.00000, -211.00000, 914.00000, 1.38702, 0.00610, 0.03052, -102.25800, 18.83700, -439313, 1836.00000, -206.00000, 914.00000, 1.44806, 0.00610, 0.03052, -98.37099, 20.18250, -48.9353, 1831.00000, -208.00000, 914.00000, 1.50909, -0.05493, 0.03052, -101.66000, 16.74400, -49393, 1834.00000, -207.00000, 914.00000, 1.50909, 0.12817, 0.03052, -101.66000, 16.74400, -429433, 1837.00000, -206.00000, 915.00000, 1.44806, 0.12817, 0.03052, -102.40750, 17.19250, -44.25200

8354, 1835.00000, -211.00000, 915.00000, 1.44806, 0.06714, 0.03052, -100.91250, 16.44500, -438394, 1837.00000, -209.00000, 915.00000, 1.44806, 0.06714, 0.09155, -101.80950, 18.38850, -438434, 1836.00000, -207.00000, 912.00000, 1.44806, 0.00610, 0.03052, -101.06200, 17.34200, -448474, 1836.00000, -206.00000, 915.00000, 1.57013, 0.00610, 0.03052, -101.06200, 17.34200, -428565, 1837.00000, -209.00000, 916.00000, 1.44806, 0.06714, -0.03052, -99.56700, 21.22900, -468605, 1837.00000, -210.00000, 916.00000, 1.44806, 0.00610, 0.03052, -99.56700, 21.22900, -46.8645, 1833.00000, -204.00000, 915.00000, 1.50909, -0.05493, 0.03052, -99.56700, 21.22900, -468685, 1835.00000, -205.00000, 915.00000, 1.50909, 0.06714, -0.03052, -103.00550, 18.83700, -48725, 1838.00000, -209.00000, 916.00000, 1.63116, 0.18921, -0.03052, -101.95900, 17.19250, -48796, 1832.00000, -205.00000, 912.00000, 1.38702, 0.06714, 0.09155, -95.68000, 21.07950, -48.8836, 1833.00000, -204.00000, 916.00000, 1.50909, 0.12817, 0.03052, -101.80950, 17.64100, -438876, 1835.00000, -209.00000, 915.00000, 1.57013, 0.18921, -0.03052, -102.70650, 17.19250, -48916, 1838.00000, -207.00000, 918.00000, 1.50909, 0.12817, -0.09155, -102.70650, 17.19250, -48956, 1837.00000, -211.00000, 916.00000, 1.44806, 0.12817, -0.03052, -102.70650, 17.19250, -49091, 1834.00000, -206.00000, 914.00000, 1.57013, 0.06714, 0.03052, -97.62350, 22.42500, -49.9131, 1835.00000, -208.00000, 914.00000, 1.50909, 0.18921, -0.03052, -102.25800, 17.64100, -49171, 1834.00000, -211.00000, 916.00000, 1.57013, 0.12817, -0.09155, -101.80950, 18.08950, -49211, 1838.00000, -211.00000, 914.00000, 1.38702, 0.00610, 0.03052, -102.25800, 18.83700, -439313, 1836.00000, -206.00000, 914.00000, 1.44806, 0.00610, 0.03052, -98.37099, 20.18250, -48.9353, 1831.00000, -208.00000, 914.00000, 1.50909, -0.05493, 0.03052, -101.66000, 16.74400, -49393, 1834.00000, -207.00000, 914.00000, 1.50909, 0.12817, 0.03052, -101.66000, 16.74400, -429433, 1837.00000, -206.00000, 915.00000, 1.44806, 0.12817, 0.03052, -102.40750, 17.19250, -44.25200

8394, 1837.00000, -209.00000, 915.00000, 1.44806, 0.06714, 0.09155, -101.80950, 18.38850, -438434, 1836.00000, -207.00000, 912.00000, 1.44806, 0.00610, 0.03052, -101.06200, 17.34200, -448474, 1836.00000, -206.00000, 915.00000, 1.57013, 0.00610, 0.03052, -101.06200, 17.34200, -428565, 1837.00000, -209.00000, 916.00000, 1.44806, 0.06714, -0.03052, -99.56700, 21.22900, -468605, 1837.00000, -210.00000, 916.00000, 1.44806, 0.00610, 0.03052, -99.56700, 21.22900, -46.8645, 1833.00000, -204.00000, 915.00000, 1.50909, -0.05493, 0.03052, -99.56700, 21.22900, -468685, 1835.00000, -205.00000, 915.00000, 1.50909, 0.06714, -0.03052, -103.00550, 18.83700, -48725, 1838.00000, -209.00000, 916.00000, 1.63116, 0.18921, -0.03052, -101.95900, 17.19250, -48796, 1832.00000, -205.00000, 912.00000, 1.38702, 0.06714, 0.09155, -95.68000, 21.07950, -48.8836, 1833.00000, -204.00000, 916.00000, 1.50909, 0.12817, 0.03052, -101.80950, 17.64100, -438876, 1835.00000, -209.00000, 915.00000, 1.57013, 0.18921, -0.03052, -102.70650, 17.19250, -48916, 1838.00000, -207.00000, 918.00000, 1.50909, 0.12817, -0.09155, -102.70650, 17.19250, -48956, 1837.00000, -211.00000, 916.00000, 1.44806, 0.12817, -0.03052, -102.70650, 17.19250, -49091, 1834.00000, -206.00000, 914.00000, 1.57013, 0.06714, 0.03052, -97.62350, 22.42500, -49.9131, 1835.00000, -208.00000, 914.00000, 1.50909, 0.18921, -0.03052, -102.25800, 17.64100, -49171, 1834.00000, -211.00000, 916.00000, 1.57013, 0.12817, -0.09155, -101.80950, 18.08950, -49211, 1838.00000, -211.00000, 914.00000, 1.38702, 0.00610, 0.03052, -102.25800, 18.83700, -439313, 1836.00000, -206.00000, 914.00000, 1.44806, 0.00610, 0.03052, -98.37099, 20.18250, -48.9353, 1831.00000, -208.00000, 914.00000, 1.50909, -0.05493, 0.03052, -101.66000, 16.74400, -49393, 1834.00000, -207.00000, 914.00000, 1.50909, 0.12817, 0.03052, -101.66000, 16.74400, -429433, 1837.00000, -206.00000, 915.00000, 1.44806, 0.12817, 0.03052, -102.40750, 17.19250, -44.25200

8434, 1836.00000, -207.00000, 912.00000, 1.44806, 0.00610, 0.03052, -101.06200, 17.34200, -448474, 1836.00000, -206.00000, 915.00000, 1.57013, 0.00610, 0.03052, -101.06200, 17.34200, -428565, 1837.00000, -209.00000, 916.00000, 1.44806, 0.06714, -0.03052, -99.56700, 21.22900, -468605, 1837.00000, -210.00000, 916.00000, 1.44806, 0.00610, 0.03052, -99.56700, 21.22900, -46.8645, 1833.00000, -204.00000, 915.00000, 1.50909, -0.05493, 0.03052, -99.56700, 21.22900, -468685, 1835.00000, -205.00000, 915.00000, 1.50909, 0.06714, -0.03052, -103.00550, 18.83700, -48725, 1838.00000, -209.00000, 916.00000, 1.63116, 0.18921, -0.03052, -101.95900, 17.19250, -48796, 1832.00000, -205.00000, 912.00000, 1.38702, 0.06714, 0.09155, -95.68000, 21.07950, -48.8836, 1833.00000, -204.00000, 916.00000, 1.50909, 0.12817, 0.03052, -101.80950, 17.64100, -438876, 1835.00000, -209.00000, 915.00000, 1.57013, 0.18921, -0.03052, -102.70650, 17.19250, -48916, 1838.00000, -207.00000, 918.00000, 1.50909, 0.12817, -0.09155, -102.70650, 17.19250, -48956, 1837.00000, -211.00000, 916.00000, 1.44806, 0.12817, -0.03052, -102.70650, 17.19250, -49091, 1834.00000, -206.00000, 914.00000, 1.57013, 0.06714, 0.03052, -97.62350, 22.42500, -49.9131, 1835.00000, -208.00000, 914.00000, 1.50909, 0.18921, -0.03052, -102.25800, 17.64100, -49171, 1834.00000, -211.00000, 916.00000, 1.57013, 0.12817, -0.09155, -101.80950, 18.08950, -49211, 1838.00000, -211.00000, 914.00000, 1.38702, 0.00610, 0.03052, -102.25800, 18.83700, -439313, 1836.00000, -206.00000, 914.00000, 1.44806, 0.00610, 0.03052, -98.37099, 20.18250, -48.9353, 1831.00000, -208.00000, 914.00000, 1.50909, -0.05493, 0.03052, -101.66000, 16.74400, -49393, 1834.00000, -207.00000, 914.00000, 1.50909, 0.12817, 0.03052, -101.66000, 16.74400, -429433, 1837.00000, -206.00000, 915.00000, 1.44806, 0.12817, 0.03052, -102.40750, 17.19250, -44.25200

8474, 1836.00000, -206.00000, 915.00000, 1.57013, 0.00610, 0.03052, -101.06200, 17.34200, -428565, 1837.00000, -209.00000, 916.00000, 1.44806, 0.06714, -0.03052, -99.56700, 21.22900, -468605, 1837.00000, -210.00000, 916.00000, 1.44806, 0.00610, 0.03052, -99.56700, 21.22900, -46.8645, 1833.00000, -204.00000, 915.00000, 1.50909, -0.05493, 0.03052, -99.56700, 21.22900, -468685, 1835.00000, -205.00000, 915.00000, 1.50909, 0.06714, -0.03052, -103.00550, 18.83700, -48725, 1838.00000, -209.00000, 916.00000, 1.63116, 0.18921, -0.03052, -101.95900, 17.19250, -48796, 1832.00000, -205.00000, 912.00000, 1.38702, 0.06714, 0.09155, -95.68000, 21.07950, -48.8836, 1833.00000, -204.00000, 916.00000, 1.50909, 0.12817, 0.03052, -101.80950, 17.64100, -438876, 1835.00000, -209.00000, 915.00000, 1.57013, 0.18921, -0.03052, -102.70650, 17.19250, -48916, 1838.00000, -207.00000, 918.00000, 1.50909, 0.12817, -0.09155, -102.70650, 17.19250, -48956, 1837.00000, -211.00000, 916.00000, 1.44806, 0.12817, -0.03052, -102.70650, 17.19250, -49091, 1834.00000, -206.00000, 914.00000, 1.57013, 0.06714, 0.03052, -97.62350, 22.42500, -49.9131, 1835.00000, -208.00000, 914.00000, 1.50909, 0.18921, -0.03052, -102.25800, 17.64100, -49171, 1834.00000, -211.00000, 916.00000, 1.57013, 0.12817, -0.09155, -101.80950, 18.08950, -49211, 1838.00000, -211.00000, 914.00000, 1.38702, 0.00610, 0.03052, -102.25800, 18.83700, -439313, 1836.00000, -206.00000, 914.00000, 1.44806, 0.00610, 0.03052, -98.37099, 20.18250, -48.9353, 1831.00000, -208.00000, 914.00000, 1.50909, -0.05493, 0.03052, -101.66000, 16.74400, -49393, 1834.00000, -207.00000, 914.00000, 1.50909, 0.12817, 0.03052, -101.66000, 16.74400, -429433, 1837.00000, -206.00000, 915.00000, 1.44806, 0.12817, 0.03052, -102.40750, 17.19250, -44.25200

8565, 1837.00000, -209.00000, 916.00000, 1.44806, 0.06714, -0.03052, -99.56700, 21.22900, -468605, 1837.00000, -210.00000, 916.00000, 1.44806, 0.00610, 0.03052, -99.56700, 21.22900, -46.8645, 1833.00000, -204.00000, 915.00000, 1.50909, -0.05493, 0.03052, -99.56700, 21.22900, -468685, 1835.00000, -205.00000, 915.00000, 1.50909, 0.06714, -0.03052, -103.00550, 18.83700, -48725, 1838.00000, -209.00000, 916.00000, 1.63116, 0.18921, -0.03052, -101.95900, 17.19250, -48796, 1832.00000, -205.00000, 912.00000, 1.38702, 0.06714, 0.09155, -95.68000, 21.07950, -48.8836, 1833.00000, -204.00000, 916.00000, 1.50909, 0.12817, 0.03052, -101.80950, 17.64100, -438876, 1835.00000, -209.00000, 915.00000, 1.57013, 0.18921, -0.03052, -102.70650, 17.19250, -48916, 1838.00000, -207.00000, 918.00000, 1.50909, 0.12817, -0.09155, -102.70650, 17.19250, -48956, 1837.00000, -211.00000, 916.00000, 1.44806, 0.12817, -0.03052, -102.70650, 17.19250, -49091, 1834.00000, -206.00000, 914.00000, 1.57013, 0.06714, 0.03052, -97.62350, 22.42500, -49.9131, 1835.00000, -208.00000, 914.00000, 1.50909, 0.18921, -0.03052, -102.25800, 17.64100, -49171, 1834.00000, -211.00000, 916.00000, 1.57013, 0.12817, -0.09155, -101.80950, 18.08950, -49211, 1838.00000, -211.00000, 914.00000, 1.38702, 0.00610, 0.03052, -102.25800, 18.83700, -439313, 1836.00000, -206.00000, 914.00000, 1.44806, 0.00610, 0.03052, -98.37099, 20.18250, -48.9353, 1831.00000, -208.00000, 914.00000, 1.50909, -0.05493, 0.03052, -101.66000, 16.74400, -49393, 1834.00000, -207.00000, 914.00000, 1.50909, 0.12817, 0.03052, -101.66000, 16.74400, -429433, 1837.00000, -206.00000, 915.00000, 1.44806, 0.12817, 0.03052, -102.40750, 17.19250, -44.25200

8605, 1837.00000, -210.00000, 916.00000, 1.44806, 0.00610, 0.03052, -99.56700, 21.22900, -46.8645, 1833.00000, -204.00000, 915.00000, 1.50909, -0.05493, 0.03052, -99.56700, 21.22900, -468685, 1835.00000, -205.00000, 915.00000, 1.50909, 0.06714, -0.03052, -103.00550, 18.83700, -48725, 1838.00000, -209.00000, 916.00000, 1.63116, 0.18921, -0.03052, -101.95900, 17.19250, -48796, 1832.00000, -205.00000, 912.00000, 1.38702, 0.06714, 0.09155, -95.68000, 21.07950, -48.8836, 1833.00000, -204.00000, 916.00000, 1.50909, 0.12817, 0.03052, -101.80950, 17.64100, -438876, 1835.00000, -209.00000, 915.00000, 1.57013, 0.18921, -0.03052, -102.70650, 17.19250, -48916, 1838.00000, -207.00000, 918.00000, 1.50909, 0.12817, -0.09155, -102.70650, 17.19250, -48956, 1837.00000, -211.00000, 916.00000, 1.44806, 0.12817, -0.03052, -102.70650, 17.19250, -49091, 1834.00000, -206.00000, 914.00000, 1.57013, 0.06714, 0.03052, -97.62350, 22.42500, -49.9131, 1835.00000, -208.00000, 914.00000, 1.50909, 0.18921, -0.03052, -102.25800, 17.64100, -49171, 1834.00000, -211.00000, 916.00000, 1.57013, 0.12817, -0.09155, -101.80950, 18.08950, -49211, 1838.00000, -211.00000, 914.00000, 1.38702, 0.00610, 0.03052, -102.25800, 18.83700, -439313, 1836.00000, -206.00000, 914.00000, 1.44806, 0.00610, 0.03052, -98.37099, 20.18250, -48.9353, 1831.00000, -208.00000, 914.00000, 1.50909, -0.05493, 0.03052, -101.66000, 16.74400, -49393, 1834.00000, -207.00000, 914.00000, 1.50909, 0.12817, 0.03052, -101.66000, 16.74400, -429433, 1837.00000, -206.00000, 915.00000, 1.44806, 0.12817, 0.03052, -102.40750, 17.19250, -44.25200

8645, 1833.00000, -204.00000, 915.00000, 1.50909, -0.05493, 0.03052, -99.56700, 21.22900, -468685, 1835.00000, -205.00000, 915.00000, 1.50909, 0.06714, -0.03052, -103.00550, 18.83700, -48725, 1838.00000, -209.00000, 916.00000, 1.63116, 0.18921, -0.03052, -101.95900, 17.19250, -48796, 1832.00000, -205.00000, 912.00000, 1.38702, 0.06714, 0.09155, -95.68000, 21.07950, -48.8836, 1833.00000, -204.00000, 916.00000, 1.50909, 0.12817, 0.03052, -101.80950, 17.64100, -438876, 1835.00000, -209.00000, 915.00000, 1.57013, 0.18921, -0.03052, -102.70650, 17.19250, -48916, 1838.00000, -207.00000, 918.00000, 1.50909, 0.12817, -0.09155, -102.70650, 17.19250, -48956, 1837.00000, -211.00000, 916.00000, 1.44806, 0.12817, -0.03052, -102.70650, 17.19250, -49091, 1834.00000, -206.00000, 914.00000, 1.57013, 0.06714, 0.03052, -97.62350, 22.42500, -49.9131, 1835.00000, -208.00000, 914.00000, 1.50909, 0.18921, -0.03052, -102.25800, 17.64100, -49171, 1834.00000, -211.00000, 916.00000, 1.57013, 0.12817, -0.09155, -101.80950, 18.08950, -49211, 1838.00000, -211.00000, 914.00000, 1.38702, 0.00610, 0.03052, -102.25800, 18.83700, -439313, 1836.00000, -206.00000, 914.00000, 1.44806, 0.00610, 0.03052, -98.37099, 20.18250, -48.9353, 1831.00000, -208.00000, 914.00000, 1.50909, -0.05493, 0.03052, -101.66000, 16.74400, -49393, 1834.00000, -207.00000, 914.00000, 1.50909, 0.12817, 0.03052, -101.66000, 16.74400, -429433, 1837.00000, -206.00000, 915.00000, 1.44806, 0.12817, 0.03052, -102.40750, 17.19250, -44.25200

8685, 1835.00000, -205.00000, 915.00000, 1.50909, 0.06714, -0.03052, -103.00550, 18.83700, -48725, 1838.00000, -209.00000, 916.00000, 1.63116, 0.18921, -0.03052, -101.95900, 17.19250, -48796, 1832.00000, -205.00000, 912.00000, 1.38702, 0.06714, 0.09155, -95.68000, 21.07950, -48.8836, 1833.00000, -204.00000, 916.00000, 1.50909, 0.12817, 0.03052, -101.80950, 17.64100, -438876, 1835.00000, -209.00000, 915.00000, 1.57013, 0.18921, -0.03052, -102.70650, 17.19250, -48916, 1838.00000, -207.00000, 918.00000, 1.50909, 0.12817, -0.09155, -102.70650, 17.19250, -48956, 1837.00000, -211.00000, 916.00000, 1.44806, 0.12817, -0.03052, -102.70650, 17.19250, -49091, 1834.00000, -206.00000, 914.00000, 1.57013, 0.06714, 0.03052, -97.62350, 22.42500, -49.9131, 1835.00000, -208.00000, 914.00000, 1.50909, 0.18921, -0.03052, -102.25800, 17.64100, -49171, 1834.00000, -211.00000, 916.00000, 1.57013, 0.12817, -0.09155, -101.80950, 18.08950, -49211, 1838.00000, -211.00000, 914.00000, 1.38702, 0.00610, 0.03052, -102.25800, 18.83700, -439313, 1836.00000, -206.00000, 914.00000, 1.44806, 0.00610, 0.03052, -98.37099, 20.18250, -48.9353, 1831.00000, -208.00000, 914.00000, 1.50909, -0.05493, 0.03052, -101.66000, 16.74400, -49393, 1834.00000, -207.00000, 914.00000, 1.50909, 0.12817, 0.03052, -101.66000, 16.74400, -429433, 1837.00000, -206.00000, 915.00000, 1.44806, 0.12817, 0.03052, -102.40750, 17.19250, -44.25200

8725, 1838.00000, -209.00000, 916.00000, 1.63116, 0.18921, -0.03052, -101.95900, 17.19250, -48796, 1832.00000, -205.00000, 912.00000, 1.38702, 0.06714, 0.09155, -95.68000, 21.07950, -48.8836, 1833.00000, -204.00000, 916.00000, 1.50909, 0.12817, 0.03052, -101.80950, 17.64100, -438876, 1835.00000, -209.00000, 915.00000, 1.57013, 0.18921, -0.03052, -102.70650, 17.19250, -48916, 1838.00000, -207.00000, 918.00000, 1.50909, 0.12817, -0.09155, -102.70650, 17.19250, -48956, 1837.00000, -211.00000, 916.00000, 1.44806, 0.12817, -0.03052, -102.70650, 17.19250, -49091, 1834.00000, -206.00000, 914.00000, 1.57013, 0.06714, 0.03052, -97.62350, 22.42500, -49.9131, 1835.00000, -208.00000, 914.00000, 1.50909, 0.18921, -0.03052, -102.25800, 17.64100, -49171, 1834.00000, -211.00000, 916.00000, 1.57013, 0.12817, -0.09155, -101.80950, 18.08950, -49211, 1838.00000, -211.00000, 914.00000, 1.38702, 0.00610, 0.03052, -102.25800, 18.83700, -439313, 1836.00000, -206.00000, 914.00000, 1.44806, 0.00610, 0.03052, -98.37099, 20.18250, -48.9353, 1831.00000, -208.00000, 914.00000, 1.50909, -0.05493, 0.03052, -101.66000, 16.74400, -49393, 1834.00000, -207.00000, 914.00000, 1.50909, 0.12817, 0.03052, -101.66000, 16.74400, -429433, 1837.00000, -206.00000, 915.00000, 1.44806, 0.12817, 0.03052, -102.40750, 17.19250, -44.25200

8796, 1832.00000, -205.00000, 912.00000, 1.38702, 0.06714, 0.09155, -95.68000, 21.07950, -48.8836, 1833.00000, -204.00000, 916.00000, 1.50909, 0.12817, 0.03052, -101.80950, 17.64100, -438876, 1835.00000, -209.00000, 915.00000, 1.57013, 0.18921, -0.03052, -102.70650, 17.19250, -48916, 1838.00000, -207.00000, 918.00000, 1.50909, 0.12817, -0.09155, -102.70650, 17.19250, -48956, 1837.00000, -211.00000, 916.00000, 1.44806, 0.12817, -0.03052, -102.70650, 17.19250, -49091, 1834.00000, -206.00000, 914.00000, 1.57013, 0.06714, 0.03052, -97.62350, 22.42500, -49.9131, 1835.00000, -208.00000, 914.00000, 1.50909, 0.18921, -0.03052, -102.25800, 17.64100, -49171, 1834.00000, -211.00000, 916.00000, 1.57013, 0.12817, -0.09155, -101.80950, 18.08950, -49211, 1838.00000, -211.00000, 914.00000, 1.38702, 0.00610, 0.03052, -102.25800, 18.83700, -439313, 1836.00000, -206.00000, 914.00000, 1.44806, 0.00610, 0.03052, -98.37099, 20.18250, -48.9353, 1831.00000, -208.00000, 914.00000, 1.50909, -0.05493, 0.03052, -101.66000, 16.74400, -49393, 1834.00000, -207.00000, 914.00000, 1.50909, 0.12817, 0.03052, -101.66000, 16.74400, -429433, 1837.00000, -206.00000, 915.00000, 1.44806, 0.12817, 0.03052, -102.40750, 17.19250, -44.25200

8836, 1833.00000, -204.00000, 916.00000, 1.50909, 0.12817, 0.03052, -101.80950, 17.64100, -438876, 1835.00000, -209.00000, 915.00000, 1.57013, 0.18921, -0.03052, -102.70650, 17.19250, -48916, 1838.00000, -207.00000, 918.00000, 1.50909, 0.12817, -0.09155, -102.70650, 17.19250, -48956, 1837.00000, -211.00000, 916.00000, 1.44806, 0.12817, -0.03052, -102.70650, 17.19250, -49091, 1834.00000, -206.00000, 914.00000, 1.57013, 0.06714, 0.03052, -97.62350, 22.42500, -49.9131, 1835.00000, -208.00000, 914.00000, 1.50909, 0.18921, -0.03052, -102.25800, 17.64100, -49171, 1834.00000, -211.00000, 916.00000, 1.57013, 0.12817, -0.09155, -101.80950, 18.08950, -49211, 1838.00000, -211.00000, 914.00000, 1.38702, 0.00610, 0.03052, -102.25800, 18.83700, -439313, 1836.00000, -206.00000, 914.00000, 1.44806, 0.00610, 0.03052, -98.37099, 20.18250, -48.9353, 1831.00000, -208.00000, 914.00000, 1.50909, -0.05493, 0.03052, -101.66000, 16.74400, -49393, 1834.00000, -207.00000, 914.00000, 1.50909, 0.12817, 0.03052, -101.66000, 16.74400, -429433, 1837.00000, -206.00000, 915.00000, 1.44806, 0.12817, 0.03052, -102.40750, 17.19250, -44.25200

8876, 1835.00000, -209.00000, 915.00000, 1.57013, 0.18921, -0.03052, -102.70650, 17.19250, -48916, 1838.00000, -207.00000, 918.00000, 1.50909, 0.12817, -0.09155, -102.70650, 17.19250, -48956, 1837.00000, -211.00000, 916.00000, 1.44806, 0.12817, -0.03052, -102.70650, 17.19250, -49091, 1834.00000, -206.00000, 914.00000, 1.57013, 0.06714, 0.03052, -97.62350, 22.42500, -49.9131, 1835.00000, -208.00000, 914.00000, 1.50909, 0.18921, -0.03052, -102.25800, 17.64100, -49171, 1834.00000, -211.00000, 916.00000, 1.57013, 0.12817, -0.09155, -101.80950, 18.08950, -49211, 1838.00000, -211.00000, 914.00000, 1.38702, 0.00610, 0.03052, -102.25800, 18.83700, -439313, 1836.00000, -206.00000, 914.00000, 1.44806, 0.00610, 0.03052, -98.37099, 20.18250, -48.9353, 1831.00000, -208.00000, 914.00000, 1.50909, -0.05493, 0.03052, -101.66000, 16.74400, -49393, 1834.00000, -207.00000, 914.00000, 1.50909, 0.12817, 0.03052, -101.66000, 16.74400, -429433, 1837.00000, -206.00000, 915.00000, 1.44806, 0.12817, 0.03052, -102.40750, 17.19250, -44.25200

8916, 1838.00000, -207.00000, 918.00000, 1.50909, 0.12817, -0.09155, -102.70650, 17.19250, -48956, 1837.00000, -211.00000, 916.00000, 1.44806, 0.12817, -0.03052, -102.70650, 17.19250, -49091, 1834.00000, -206.00000, 914.00000, 1.57013, 0.06714, 0.03052, -97.62350, 22.42500, -49.9131, 1835.00000, -208.00000, 914.00000, 1.50909, 0.18921, -0.03052, -102.25800, 17.64100, -49171, 1834.00000, -211.00000, 916.00000, 1.57013, 0.12817, -0.09155, -101.80950, 18.08950, -49211, 1838.00000, -211.00000, 914.00000, 1.38702, 0.00610, 0.03052, -102.25800, 18.83700, -439313, 1836.00000, -206.00000, 914.00000, 1.44806, 0.00610, 0.03052, -98.37099, 20.18250, -48.9353, 1831.00000, -208.00000, 914.00000, 1.50909, -0.05493, 0.03052, -101.66000, 16.74400, -49393, 1834.00000, -207.00000, 914.00000, 1.50909, 0.12817, 0.03052, -101.66000, 16.74400, -429433, 1837.00000, -206.00000, 915.00000, 1.44806, 0.12817, 0.03052, -102.40750, 17.19250, -44.25200

8956, 1837.00000, -211.00000, 916.00000, 1.44806, 0.12817, -0.03052, -102.70650, 17.19250, -49091, 1834.00000, -206.00000, 914.00000, 1.57013, 0.06714, 0.03052, -97.62350, 22.42500, -49.9131, 1835.00000, -208.00000, 914.00000, 1.50909, 0.18921, -0.03052, -102.25800, 17.64100, -49171, 1834.00000, -211.00000, 916.00000, 1.57013, 0.12817, -0.09155, -101.80950, 18.08950, -49211, 1838.00000, -211.00000, 914.00000, 1.38702, 0.00610, 0.03052, -102.25800, 18.83700, -439313, 1836.00000, -206.00000, 914.00000, 1.44806, 0.00610, 0.03052, -98.37099, 20.18250, -48.9353, 1831.00000, -208.00000, 914.00000, 1.50909, -0.05493, 0.03052, -101.66000, 16.74400, -49393, 1834.00000, -207.00000, 914.00000, 1.50909, 0.12817, 0.03052, -101.66000, 16.74400, -429433, 1837.00000, -206.00000, 915.00000, 1.44806, 0.12817, 0.03052, -102.40750, 17.19250, -44.25200

9091, 1834.00000, -206.00000, 914.00000, 1.57013, 0.06714, 0.03052, -97.62350, 22.42500, -49.9131, 1835.00000, -208.00000, 914.00000, 1.50909, 0.18921, -0.03052, -102.25800, 17.64100, -49171, 1834.00000, -211.00000, 916.00000, 1.57013, 0.12817, -0.09155, -101.80950, 18.08950, -49211, 1838.00000, -211.00000, 914.00000, 1.38702, 0.00610, 0.03052, -102.25800, 18.83700, -439313, 1836.00000, -206.00000, 914.00000, 1.44806, 0.00610, 0.03052, -98.37099, 20.18250, -48.9353, 1831.00000, -208.00000, 914.00000, 1.50909, -0.05493, 0.03052, -101.66000, 16.74400, -49393, 1834.00000, -207.00000, 914.00000, 1.50909, 0.12817, 0.03052, -101.66000, 16.74400, -429433, 1837.00000, -206.00000, 915.00000, 1.44806, 0.12817, 0.03052, -102.40750, 17.19250, -44.25200

9131, 1835.00000, -208.00000, 914.00000, 1.50909, 0.18921, -0.03052, -102.25800, 17.64100, -49171, 1834.00000, -211.00000, 916.00000, 1.57013, 0.12817, -0.09155, -101.80950, 18.08950, -49211, 1838.00000, -211.00000, 914.00000, 1.38702, 0.00610, 0.03052, -102.25800, 18.83700, -439313, 1836.00000, -206.00000, 914.00000, 1.44806, 0.00610, 0.03052, -98.37099, 20.18250, -48.9353, 1831.00000, -208.00000, 914.00000, 1.50909, -0.05493, 0.03052, -101.66000, 16.74400, -49393, 1834.00000, -207.00000, 914.00000, 1.50909, 0.12817, 0.03052, -101.66000, 16.74400, -429433, 1837.00000, -206.00000, 915.00000, 1.44806, 0.12817, 0.03052, -102.40750, 17.19250, -44.25200

9171, 1834.00000, -211.00000, 916.00000, 1.57013, 0.12817, -0.09155, -101.80950, 18.08950, -49211, 1838.00000, -211.00000, 914.00000, 1.38702, 0.00610, 0.03052, -102.25800, 18.83700, -439313, 1836.00000, -206.00000, 914.00000, 1.44806, 0.00610, 0.03052, -98.37099, 20.18250, -48.9353, 1831.00000, -208.00000, 914.00000, 1.50909, -0.05493, 0.03052, -101.66000, 16.74400, -49393, 1834.00000, -207.00000, 914.00000, 1.50909, 0.12817, 0.03052, -101.66000, 16.74400, -429433, 1837.00000, -206.00000, 915.00000, 1.44806, 0.12817, 0.03052, -102.40750, 17.19250, -44.25200

9211, 1838.00000, -211.00000, 914.00000, 1.38702, 0.00610, 0.03052, -102.25800, 18.83700, -439313, 1836.00000, -206.00000, 914.00000, 1.44806, 0.00610, 0.03052, -98.37099, 20.18250, -48.9353, 1831.00000, -208.00000, 914.00000, 1.50909, -0.05493, 0.03052, -101.66000, 16.74400, -49393, 1834.00000, -207.00000, 914.00000, 1.50909, 0.12817, 0.03052, -101.66000, 16.74400, -429433, 1837.00000, -206.00000, 915.00000, 1.44806, 0.12817, 0.03052, -102.40750, 17.19250, -44.25200

9313, 1836.00000, -206.00000, 914.00000, 1.44806, 0.00610, 0.03052, -98.37099, 20.18250, -48.9353, 1831.00000, -208.00000, 914.00000, 1.50909, -0.05493, 0.03052, -101.66000, 16.74400, -49393, 1834.00000, -207.00000, 914.00000, 1.50909, 0.12817, 0.03052, -101.66000, 16.74400, -429433, 1837.00000, -206.00000, 915.00000, 1.44806, 0.12817, 0.03052, -102.40750, 17.19250, -44.25200

9353, 1831.00000, -208.00000, 914.00000, 1.50909, -0.05493, 0.03052, -101.66000, 16.74400, -49393, 1834.00000, -207.00000, 914.00000, 1.50909, 0.12817, 0.03052, -101.66000, 16.74400, -429433, 1837.00000, -206.00000, 915.00000, 1.44806, 0.12817, 0.03052, -102.40750, 17.19250, -44.25200

9393, 1834.00000, -207.00000, 914.00000, 1.50909, 0.12817, 0.03052, -101.66000, 16.74400, -429433, 1837.00000, -206.00000, 915.00000, 1.44806, 0.12817, 0.03052, -102.40750, 17.19250, -44.25200

9433, 1837.00000, -206.00000, 915.00000, 1.44806, 0.12817, 0.03052, -102.40750, 17.19250, -44.25200

9640, 1836.00000, -210.00000, 916.00000, 1.32599, 0.00610, 0.09155, -101.51050, 18.83700, -459720, 1837.00000, -210.00000, 916.00000, 1.32599, 0.00610, 0.09155, -101.51050, 18.83700, -459760, 1832.00000, -206.00000, 915.00000, 1.44806, 0.00610, 0.03052, -103.00550, 16.14600, -439800, 1835.00000, -206.00000, 916.00000, 1.44806, 0.06714, -0.09155, -101.66000, 18.23900, -49840, 1834.00000, -208.00000, 913.00000, 1.50909, 0.06714, -0.03052, -101.66000, 17.94000, -49880, 1833.00000, -209.00000, 912.00000, 1.44806, 0.12817, -0.03052, -101.66000, 17.94000, -49942, 1837.00000, -210.00000, 913.00000, 1.57013, 0.06714, 0.03052, -98.07200, 18.98650, -49.9982, 1838.00000, -214.00000, 914.00000, 1.44806, 0.06714, 0.03052, -98.07200, 18.98650, -49.10022, 1834.00000, -212.00000, 913.00000, 1.44806, 0.06714, 0.03052, -98.07200, 18.98650, -4910062, 1835.00000, -209.00000, 912.00000, 1.44806, 0.06714, 0.09155, -98.07200, 18.98650, -4910102, 1834.00000, -210.00000, 915.00000, 1.44806, 0.06714, 0.03052, -101.66000, 17.94000, -410243, 1833.00000, -211.00000, 916.00000, 1.57013, 0.06714, -0.03052, -98.81950, 20.18250, -410283, 1833.00000, -210.00000, 911.00000, 1.44806, 0.06714, 0.03052, -98.81950, 20.18250, -4810323, 1840.00000, -211.00000, 913.00000, 1.38702, 0.00610, 0.03052, -101.06200, 17.64100, -410363, 1836.00000, -210.00000, 914.00000, 1.44806, 0.00610, 0.15259, -100.91250, 18.23900, -410469, 1838.00000, -207.00000, 911.00000, 1.44806, 0.00610, 0.03052, -97.17500, 19.13600, -4710509, 1833.00000, -206.00000, 912.00000, 1.44806, 0.06714, 0.03052, -103.30450, 16.89350, -410549, 1834.00000, -205.00000, 915.00000, 1.50909, 0.06714, 0.09155, -102.40750, 17.49150, -410589, 1830.00000, -209.00000, 916.00000, 1.50909, 0.06714, -0.03052, -103.45399, 16.44500, -10629, 1838.00000, -208.00000, 915.00000, 1.50909, 0.18921, -0.03052, -99.86600, 18.68750, -410693, 1833.00000, -208.00000, 915.00000, 1.50909, 0.12817, 0.03052, -97.17500, 20.63100, -4810733, 1837.00000, -209.00000, 914.00000, 1.50909, 0.06714, -0.03052, -97.17500, 20.63100, -410773, 1836.00000, -211.00000, 914.00000, 1.44806, 0.06714, -0.03052, -97.17500, 20.63100, -410813, 1833.00000, -209.00000, 911.00000, 1.38702, 0.00610, -0.03052, -97.17500, 20.63100, -410853, 1832.00000, -205.00000, 915.00000, 1.38702, -0.05493, 0.03052, -103.00550, 16.59450, -43.35500

9720, 1837.00000, -210.00000, 916.00000, 1.32599, 0.00610, 0.09155, -101.51050, 18.83700, -459760, 1832.00000, -206.00000, 915.00000, 1.44806, 0.00610, 0.03052, -103.00550, 16.14600, -439800, 1835.00000, -206.00000, 916.00000, 1.44806, 0.06714, -0.09155, -101.66000, 18.23900, -49840, 1834.00000, -208.00000, 913.00000, 1.50909, 0.06714, -0.03052, -101.66000, 17.94000, -49880, 1833.00000, -209.00000, 912.00000, 1.44806, 0.12817, -0.03052, -101.66000, 17.94000, -49942, 1837.00000, -210.00000, 913.00000, 1.57013, 0.06714, 0.03052, -98.07200, 18.98650, -49.9982, 1838.00000, -214.00000, 914.00000, 1.44806, 0.06714, 0.03052, -98.07200, 18.98650, -49.10022, 1834.00000, -212.00000, 913.00000, 1.44806, 0.06714, 0.03052, -98.07200, 18.98650, -4910062, 1835.00000, -209.00000, 912.00000, 1.44806, 0.06714, 0.09155, -98.07200, 18.98650, -4910102, 1834.00000, -210.00000, 915.00000, 1.44806, 0.06714, 0.03052, -101.66000, 17.94000, -410243, 1833.00000, -211.00000, 916.00000, 1.57013, 0.06714, -0.03052, -98.81950, 20.18250, -410283, 1833.00000, -210.00000, 911.00000, 1.44806, 0.06714, 0.03052, -98.81950, 20.18250, -4810323, 1840.00000, -211.00000, 913.00000, 1.38702, 0.00610, 0.03052, -101.06200, 17.64100, -410363, 1836.00000, -210.00000, 914.00000, 1.44806, 0.00610, 0.15259, -100.91250, 18.23900, -410469, 1838.00000, -207.00000, 911.00000, 1.44806, 0.00610, 0.03052, -97.17500, 19.13600, -4710509, 1833.00000, -206.00000, 912.00000, 1.44806, 0.06714, 0.03052, -103.30450, 16.89350, -410549, 1834.00000, -205.00000, 915.00000, 1.50909, 0.06714, 0.09155, -102.40750, 17.49150, -410589, 1830.00000, -209.00000, 916.00000, 1.50909, 0.06714, -0.03052, -103.45399, 16.44500, -10629, 1838.00000, -208.00000, 915.00000, 1.50909, 0.18921, -0.03052, -99.86600, 18.68750, -410693, 1833.00000, -208.00000, 915.00000, 1.50909, 0.12817, 0.03052, -97.17500, 20.63100, -4810733, 1837.00000, -209.00000, 914.00000, 1.50909, 0.06714, -0.03052, -97.17500, 20.63100, -410773, 1836.00000, -211.00000, 914.00000, 1.44806, 0.06714, -0.03052, -97.17500, 20.63100, -410813, 1833.00000, -209.00000, 911.00000, 1.38702, 0.00610, -0.03052, -97.17500, 20.63100, -410853, 1832.00000, -205.00000, 915.00000, 1.38702, -0.05493, 0.03052, -103.00550, 16.59450, -43.35500

9760, 1832.00000, -206.00000, 915.00000, 1.44806, 0.00610, 0.03052, -103.00550, 16.14600, -439800, 1835.00000, -206.00000, 916.00000, 1.44806, 0.06714, -0.09155, -101.66000, 18.23900, -49840, 1834.00000, -208.00000, 913.00000, 1.50909, 0.06714, -0.03052, -101.66000, 17.94000, -49880, 1833.00000, -209.00000, 912.00000, 1.44806, 0.12817, -0.03052, -101.66000, 17.94000, -49942, 1837.00000, -210.00000, 913.00000, 1.57013, 0.06714, 0.03052, -98.07200, 18.98650, -49.9982, 1838.00000, -214.00000, 914.00000, 1.44806, 0.06714, 0.03052, -98.07200, 18.98650, -49.10022, 1834.00000, -212.00000, 913.00000, 1.44806, 0.06714, 0.03052, -98.07200, 18.98650, -4910062, 1835.00000, -209.00000, 912.00000, 1.44806, 0.06714, 0.09155, -98.07200, 18.98650, -4910102, 1834.00000, -210.00000, 915.00000, 1.44806, 0.06714, 0.03052, -101.66000, 17.94000, -410243, 1833.00000, -211.00000, 916.00000, 1.57013, 0.06714, -0.03052, -98.81950, 20.18250, -410283, 1833.00000, -210.00000, 911.00000, 1.44806, 0.06714, 0.03052, -98.81950, 20.18250, -4810323, 1840.00000, -211.00000, 913.00000, 1.38702, 0.00610, 0.03052, -101.06200, 17.64100, -410363, 1836.00000, -210.00000, 914.00000, 1.44806, 0.00610, 0.15259, -100.91250, 18.23900, -410469, 1838.00000, -207.00000, 911.00000, 1.44806, 0.00610, 0.03052, -97.17500, 19.13600, -4710509, 1833.00000, -206.00000, 912.00000, 1.44806, 0.06714, 0.03052, -103.30450, 16.89350, -410549, 1834.00000, -205.00000, 915.00000, 1.50909, 0.06714, 0.09155, -102.40750, 17.49150, -410589, 1830.00000, -209.00000, 916.00000, 1.50909, 0.06714, -0.03052, -103.45399, 16.44500, -10629, 1838.00000, -208.00000, 915.00000, 1.50909, 0.18921, -0.03052, -99.86600, 18.68750, -410693, 1833.00000, -208.00000, 915.00000, 1.50909, 0.12817, 0.03052, -97.17500, 20.63100, -4810733, 1837.00000, -209.00000, 914.00000, 1.50909, 0.06714, -0.03052, -97.17500, 20.63100, -410773, 1836.00000, -211.00000, 914.00000, 1.44806, 0.06714, -0.03052, -97.17500, 20.63100, -410813, 1833.00000, -209.00000, 911.00000, 1.38702, 0.00610, -0.03052, -97.17500, 20.63100, -410853, 1832.00000, -205.00000, 915.00000, 1.38702, -0.05493, 0.03052, -103.00550, 16.59450, -43.35500

9800, 1835.00000, -206.00000, 916.00000, 1.44806, 0.06714, -0.09155, -101.66000, 18.23900, -49840, 1834.00000, -208.00000, 913.00000, 1.50909, 0.06714, -0.03052, -101.66000, 17.94000, -49880, 1833.00000, -209.00000, 912.00000, 1.44806, 0.12817, -0.03052, -101.66000, 17.94000, -49942, 1837.00000, -210.00000, 913.00000, 1.57013, 0.06714, 0.03052, -98.07200, 18.98650, -49.9982, 1838.00000, -214.00000, 914.00000, 1.44806, 0.06714, 0.03052, -98.07200, 18.98650, -49.10022, 1834.00000, -212.00000, 913.00000, 1.44806, 0.06714, 0.03052, -98.07200, 18.98650, -4910062, 1835.00000, -209.00000, 912.00000, 1.44806, 0.06714, 0.09155, -98.07200, 18.98650, -4910102, 1834.00000, -210.00000, 915.00000, 1.44806, 0.06714, 0.03052, -101.66000, 17.94000, -410243, 1833.00000, -211.00000, 916.00000, 1.57013, 0.06714, -0.03052, -98.81950, 20.18250, -410283, 1833.00000, -210.00000, 911.00000, 1.44806, 0.06714, 0.03052, -98.81950, 20.18250, -4810323, 1840.00000, -211.00000, 913.00000, 1.38702, 0.00610, 0.03052, -101.06200, 17.64100, -410363, 1836.00000, -210.00000, 914.00000, 1.44806, 0.00610, 0.15259, -100.91250, 18.23900, -410469, 1838.00000, -207.00000, 911.00000, 1.44806, 0.00610, 0.03052, -97.17500, 19.13600, -4710509, 1833.00000, -206.00000, 912.00000, 1.44806, 0.06714, 0.03052, -103.30450, 16.89350, -410549, 1834.00000, -205.00000, 915.00000, 1.50909, 0.06714, 0.09155, -102.40750, 17.49150, -410589, 1830.00000, -209.00000, 916.00000, 1.50909, 0.06714, -0.03052, -103.45399, 16.44500, -10629, 1838.00000, -208.00000, 915.00000, 1.50909, 0.18921, -0.03052, -99.86600, 18.68750, -410693, 1833.00000, -208.00000, 915.00000, 1.50909, 0.12817, 0.03052, -97.17500, 20.63100, -4810733, 1837.00000, -209.00000, 914.00000, 1.50909, 0.06714, -0.03052, -97.17500, 20.63100, -410773, 1836.00000, -211.00000, 914.00000, 1.44806, 0.06714, -0.03052, -97.17500, 20.63100, -410813, 1833.00000, -209.00000, 911.00000, 1.38702, 0.00610, -0.03052, -97.17500, 20.63100, -410853, 1832.00000, -205.00000, 915.00000, 1.38702, -0.05493, 0.03052, -103.00550, 16.59450, -43.35500

9840, 1834.00000, -208.00000, 913.00000, 1.50909, 0.06714, -0.03052, -101.66000, 17.94000, -49880, 1833.00000, -209.00000, 912.00000, 1.44806, 0.12817, -0.03052, -101.66000, 17.94000, -49942, 1837.00000, -210.00000, 913.00000, 1.57013, 0.06714, 0.03052, -98.07200, 18.98650, -49.9982, 1838.00000, -214.00000, 914.00000, 1.44806, 0.06714, 0.03052, -98.07200, 18.98650, -49.10022, 1834.00000, -212.00000, 913.00000, 1.44806, 0.06714, 0.03052, -98.07200, 18.98650, -4910062, 1835.00000, -209.00000, 912.00000, 1.44806, 0.06714, 0.09155, -98.07200, 18.98650, -4910102, 1834.00000, -210.00000, 915.00000, 1.44806, 0.06714, 0.03052, -101.66000, 17.94000, -410243, 1833.00000, -211.00000, 916.00000, 1.57013, 0.06714, -0.03052, -98.81950, 20.18250, -410283, 1833.00000, -210.00000, 911.00000, 1.44806, 0.06714, 0.03052, -98.81950, 20.18250, -4810323, 1840.00000, -211.00000, 913.00000, 1.38702, 0.00610, 0.03052, -101.06200, 17.64100, -410363, 1836.00000, -210.00000, 914.00000, 1.44806, 0.00610, 0.15259, -100.91250, 18.23900, -410469, 1838.00000, -207.00000, 911.00000, 1.44806, 0.00610, 0.03052, -97.17500, 19.13600, -4710509, 1833.00000, -206.00000, 912.00000, 1.44806, 0.06714, 0.03052, -103.30450, 16.89350, -410549, 1834.00000, -205.00000, 915.00000, 1.50909, 0.06714, 0.09155, -102.40750, 17.49150, -410589, 1830.00000, -209.00000, 916.00000, 1.50909, 0.06714, -0.03052, -103.45399, 16.44500, -10629, 1838.00000, -208.00000, 915.00000, 1.50909, 0.18921, -0.03052, -99.86600, 18.68750, -410693, 1833.00000, -208.00000, 915.00000, 1.50909, 0.12817, 0.03052, -97.17500, 20.63100, -4810733, 1837.00000, -209.00000, 914.00000, 1.50909, 0.06714, -0.03052, -97.17500, 20.63100, -410773, 1836.00000, -211.00000, 914.00000, 1.44806, 0.06714, -0.03052, -97.17500, 20.63100, -410813, 1833.00000, -209.00000, 911.00000, 1.38702, 0.00610, -0.03052, -97.17500, 20.63100, -410853, 1832.00000, -205.00000, 915.00000, 1.38702, -0.05493, 0.03052, -103.00550, 16.59450, -43.35500

9880, 1833.00000, -209.00000, 912.00000, 1.44806, 0.12817, -0.03052, -101.66000, 17.94000, -49942, 1837.00000, -210.00000, 913.00000, 1.57013, 0.06714, 0.03052, -98.07200, 18.98650, -49.9982, 1838.00000, -214.00000, 914.00000, 1.44806, 0.06714, 0.03052, -98.07200, 18.98650, -49.10022, 1834.00000, -212.00000, 913.00000, 1.44806, 0.06714, 0.03052, -98.07200, 18.98650, -4910062, 1835.00000, -209.00000, 912.00000, 1.44806, 0.06714, 0.09155, -98.07200, 18.98650, -4910102, 1834.00000, -210.00000, 915.00000, 1.44806, 0.06714, 0.03052, -101.66000, 17.94000, -410243, 1833.00000, -211.00000, 916.00000, 1.57013, 0.06714, -0.03052, -98.81950, 20.18250, -410283, 1833.00000, -210.00000, 911.00000, 1.44806, 0.06714, 0.03052, -98.81950, 20.18250, -4810323, 1840.00000, -211.00000, 913.00000, 1.38702, 0.00610, 0.03052, -101.06200, 17.64100, -410363, 1836.00000, -210.00000, 914.00000, 1.44806, 0.00610, 0.15259, -100.91250, 18.23900, -410469, 1838.00000, -207.00000, 911.00000, 1.44806, 0.00610, 0.03052, -97.17500, 19.13600, -4710509, 1833.00000, -206.00000, 912.00000, 1.44806, 0.06714, 0.03052, -103.30450, 16.89350, -410549, 1834.00000, -205.00000, 915.00000, 1.50909, 0.06714, 0.09155, -102.40750, 17.49150, -410589, 1830.00000, -209.00000, 916.00000, 1.50909, 0.06714, -0.03052, -103.45399, 16.44500, -10629, 1838.00000, -208.00000, 915.00000, 1.50909, 0.18921, -0.03052, -99.86600, 18.68750, -410693, 1833.00000, -208.00000, 915.00000, 1.50909, 0.12817, 0.03052, -97.17500, 20.63100, -4810733, 1837.00000, -209.00000, 914.00000, 1.50909, 0.06714, -0.03052, -97.17500, 20.63100, -410773, 1836.00000, -211.00000, 914.00000, 1.44806, 0.06714, -0.03052, -97.17500, 20.63100, -410813, 1833.00000, -209.00000, 911.00000, 1.38702, 0.00610, -0.03052, -97.17500, 20.63100, -410853, 1832.00000, -205.00000, 915.00000, 1.38702, -0.05493, 0.03052, -103.00550, 16.59450, -43.35500

9942, 1837.00000, -210.00000, 913.00000, 1.57013, 0.06714, 0.03052, -98.07200, 18.98650, -49.9982, 1838.00000, -214.00000, 914.00000, 1.44806, 0.06714, 0.03052, -98.07200, 18.98650, -49.10022, 1834.00000, -212.00000, 913.00000, 1.44806, 0.06714, 0.03052, -98.07200, 18.98650, -4910062, 1835.00000, -209.00000, 912.00000, 1.44806, 0.06714, 0.09155, -98.07200, 18.98650, -4910102, 1834.00000, -210.00000, 915.00000, 1.44806, 0.06714, 0.03052, -101.66000, 17.94000, -410243, 1833.00000, -211.00000, 916.00000, 1.57013, 0.06714, -0.03052, -98.81950, 20.18250, -410283, 1833.00000, -210.00000, 911.00000, 1.44806, 0.06714, 0.03052, -98.81950, 20.18250, -4810323, 1840.00000, -211.00000, 913.00000, 1.38702, 0.00610, 0.03052, -101.06200, 17.64100, -410363, 1836.00000, -210.00000, 914.00000, 1.44806, 0.00610, 0.15259, -100.91250, 18.23900, -410469, 1838.00000, -207.00000, 911.00000, 1.44806, 0.00610, 0.03052, -97.17500, 19.13600, -4710509, 1833.00000, -206.00000, 912.00000, 1.44806, 0.06714, 0.03052, -103.30450, 16.89350, -410549, 1834.00000, -205.00000, 915.00000, 1.50909, 0.06714, 0.09155, -102.40750, 17.49150, -410589, 1830.00000, -209.00000, 916.00000, 1.50909, 0.06714, -0.03052, -103.45399, 16.44500, -10629, 1838.00000, -208.00000, 915.00000, 1.50909, 0.18921, -0.03052, -99.86600, 18.68750, -410693, 1833.00000, -208.00000, 915.00000, 1.50909, 0.12817, 0.03052, -97.17500, 20.63100, -4810733, 1837.00000, -209.00000, 914.00000, 1.50909, 0.06714, -0.03052, -97.17500, 20.63100, -410773, 1836.00000, -211.00000, 914.00000, 1.44806, 0.06714, -0.03052, -97.17500, 20.63100, -410813, 1833.00000, -209.00000, 911.00000, 1.38702, 0.00610, -0.03052, -97.17500, 20.63100, -410853, 1832.00000, -205.00000, 915.00000, 1.38702, -0.05493, 0.03052, -103.00550, 16.59450, -43.35500

9982, 1838.00000, -214.00000, 914.00000, 1.44806, 0.06714, 0.03052, -98.07200, 18.98650, -49.10022, 1834.00000, -212.00000, 913.00000, 1.44806, 0.06714, 0.03052, -98.07200, 18.98650, -4910062, 1835.00000, -209.00000, 912.00000, 1.44806, 0.06714, 0.09155, -98.07200, 18.98650, -4910102, 1834.00000, -210.00000, 915.00000, 1.44806, 0.06714, 0.03052, -101.66000, 17.94000, -410243, 1833.00000, -211.00000, 916.00000, 1.57013, 0.06714, -0.03052, -98.81950, 20.18250, -410283, 1833.00000, -210.00000, 911.00000, 1.44806, 0.06714, 0.03052, -98.81950, 20.18250, -4810323, 1840.00000, -211.00000, 913.00000, 1.38702, 0.00610, 0.03052, -101.06200, 17.64100, -410363, 1836.00000, -210.00000, 914.00000, 1.44806, 0.00610, 0.15259, -100.91250, 18.23900, -410469, 1838.00000, -207.00000, 911.00000, 1.44806, 0.00610, 0.03052, -97.17500, 19.13600, -4710509, 1833.00000, -206.00000, 912.00000, 1.44806, 0.06714, 0.03052, -103.30450, 16.89350, -410549, 1834.00000, -205.00000, 915.00000, 1.50909, 0.06714, 0.09155, -102.40750, 17.49150, -410589, 1830.00000, -209.00000, 916.00000, 1.50909, 0.06714, -0.03052, -103.45399, 16.44500, -10629, 1838.00000, -208.00000, 915.00000, 1.50909, 0.18921, -0.03052, -99.86600, 18.68750, -410693, 1833.00000, -208.00000, 915.00000, 1.50909, 0.12817, 0.03052, -97.17500, 20.63100, -4810733, 1837.00000, -209.00000, 914.00000, 1.50909, 0.06714, -0.03052, -97.17500, 20.63100, -410773, 1836.00000, -211.00000, 914.00000, 1.44806, 0.06714, -0.03052, -97.17500, 20.63100, -410813, 1833.00000, -209.00000, 911.00000, 1.38702, 0.00610, -0.03052, -97.17500, 20.63100, -410853, 1832.00000, -205.00000, 915.00000, 1.38702, -0.05493, 0.03052, -103.00550, 16.59450, -43.35500

10022, 1834.00000, -212.00000, 913.00000, 1.44806, 0.06714, 0.03052, -98.07200, 18.98650, -4910062, 1835.00000, -209.00000, 912.00000, 1.44806, 0.06714, 0.09155, -98.07200, 18.98650, -4910102, 1834.00000, -210.00000, 915.00000, 1.44806, 0.06714, 0.03052, -101.66000, 17.94000, -410243, 1833.00000, -211.00000, 916.00000, 1.57013, 0.06714, -0.03052, -98.81950, 20.18250, -410283, 1833.00000, -210.00000, 911.00000, 1.44806, 0.06714, 0.03052, -98.81950, 20.18250, -4810323, 1840.00000, -211.00000, 913.00000, 1.38702, 0.00610, 0.03052, -101.06200, 17.64100, -410363, 1836.00000, -210.00000, 914.00000, 1.44806, 0.00610, 0.15259, -100.91250, 18.23900, -410469, 1838.00000, -207.00000, 911.00000, 1.44806, 0.00610, 0.03052, -97.17500, 19.13600, -4710509, 1833.00000, -206.00000, 912.00000, 1.44806, 0.06714, 0.03052, -103.30450, 16.89350, -410549, 1834.00000, -205.00000, 915.00000, 1.50909, 0.06714, 0.09155, -102.40750, 17.49150, -410589, 1830.00000, -209.00000, 916.00000, 1.50909, 0.06714, -0.03052, -103.45399, 16.44500, -10629, 1838.00000, -208.00000, 915.00000, 1.50909, 0.18921, -0.03052, -99.86600, 18.68750, -410693, 1833.00000, -208.00000, 915.00000, 1.50909, 0.12817, 0.03052, -97.17500, 20.63100, -4810733, 1837.00000, -209.00000, 914.00000, 1.50909, 0.06714, -0.03052, -97.17500, 20.63100, -410773, 1836.00000, -211.00000, 914.00000, 1.44806, 0.06714, -0.03052, -97.17500, 20.63100, -410813, 1833.00000, -209.00000, 911.00000, 1.38702, 0.00610, -0.03052, -97.17500, 20.63100, -410853, 1832.00000, -205.00000, 915.00000, 1.38702, -0.05493, 0.03052, -103.00550, 16.59450, -43.35500

10062, 1835.00000, -209.00000, 912.00000, 1.44806, 0.06714, 0.09155, -98.07200, 18.98650, -4910102, 1834.00000, -210.00000, 915.00000, 1.44806, 0.06714, 0.03052, -101.66000, 17.94000, -410243, 1833.00000, -211.00000, 916.00000, 1.57013, 0.06714, -0.03052, -98.81950, 20.18250, -410283, 1833.00000, -210.00000, 911.00000, 1.44806, 0.06714, 0.03052, -98.81950, 20.18250, -4810323, 1840.00000, -211.00000, 913.00000, 1.38702, 0.00610, 0.03052, -101.06200, 17.64100, -410363, 1836.00000, -210.00000, 914.00000, 1.44806, 0.00610, 0.15259, -100.91250, 18.23900, -410469, 1838.00000, -207.00000, 911.00000, 1.44806, 0.00610, 0.03052, -97.17500, 19.13600, -4710509, 1833.00000, -206.00000, 912.00000, 1.44806, 0.06714, 0.03052, -103.30450, 16.89350, -410549, 1834.00000, -205.00000, 915.00000, 1.50909, 0.06714, 0.09155, -102.40750, 17.49150, -410589, 1830.00000, -209.00000, 916.00000, 1.50909, 0.06714, -0.03052, -103.45399, 16.44500, -10629, 1838.00000, -208.00000, 915.00000, 1.50909, 0.18921, -0.03052, -99.86600, 18.68750, -410693, 1833.00000, -208.00000, 915.00000, 1.50909, 0.12817, 0.03052, -97.17500, 20.63100, -4810733, 1837.00000, -209.00000, 914.00000, 1.50909, 0.06714, -0.03052, -97.17500, 20.63100, -410773, 1836.00000, -211.00000, 914.00000, 1.44806, 0.06714, -0.03052, -97.17500, 20.63100, -410813, 1833.00000, -209.00000, 911.00000, 1.38702, 0.00610, -0.03052, -97.17500, 20.63100, -410853, 1832.00000, -205.00000, 915.00000, 1.38702, -0.05493, 0.03052, -103.00550, 16.59450, -43.35500

10102, 1834.00000, -210.00000, 915.00000, 1.44806, 0.06714, 0.03052, -101.66000, 17.94000, -410243, 1833.00000, -211.00000, 916.00000, 1.57013, 0.06714, -0.03052, -98.81950, 20.18250, -410283, 1833.00000, -210.00000, 911.00000, 1.44806, 0.06714, 0.03052, -98.81950, 20.18250, -4810323, 1840.00000, -211.00000, 913.00000, 1.38702, 0.00610, 0.03052, -101.06200, 17.64100, -410363, 1836.00000, -210.00000, 914.00000, 1.44806, 0.00610, 0.15259, -100.91250, 18.23900, -410469, 1838.00000, -207.00000, 911.00000, 1.44806, 0.00610, 0.03052, -97.17500, 19.13600, -4710509, 1833.00000, -206.00000, 912.00000, 1.44806, 0.06714, 0.03052, -103.30450, 16.89350, -410549, 1834.00000, -205.00000, 915.00000, 1.50909, 0.06714, 0.09155, -102.40750, 17.49150, -410589, 1830.00000, -209.00000, 916.00000, 1.50909, 0.06714, -0.03052, -103.45399, 16.44500, -10629, 1838.00000, -208.00000, 915.00000, 1.50909, 0.18921, -0.03052, -99.86600, 18.68750, -410693, 1833.00000, -208.00000, 915.00000, 1.50909, 0.12817, 0.03052, -97.17500, 20.63100, -4810733, 1837.00000, -209.00000, 914.00000, 1.50909, 0.06714, -0.03052, -97.17500, 20.63100, -410773, 1836.00000, -211.00000, 914.00000, 1.44806, 0.06714, -0.03052, -97.17500, 20.63100, -410813, 1833.00000, -209.00000, 911.00000, 1.38702, 0.00610, -0.03052, -97.17500, 20.63100, -410853, 1832.00000, -205.00000, 915.00000, 1.38702, -0.05493, 0.03052, -103.00550, 16.59450, -43.35500

10243, 1833.00000, -211.00000, 916.00000, 1.57013, 0.06714, -0.03052, -98.81950, 20.18250, -410283, 1833.00000, -210.00000, 911.00000, 1.44806, 0.06714, 0.03052, -98.81950, 20.18250, -4810323, 1840.00000, -211.00000, 913.00000, 1.38702, 0.00610, 0.03052, -101.06200, 17.64100, -410363, 1836.00000, -210.00000, 914.00000, 1.44806, 0.00610, 0.15259, -100.91250, 18.23900, -410469, 1838.00000, -207.00000, 911.00000, 1.44806, 0.00610, 0.03052, -97.17500, 19.13600, -4710509, 1833.00000, -206.00000, 912.00000, 1.44806, 0.06714, 0.03052, -103.30450, 16.89350, -410549, 1834.00000, -205.00000, 915.00000, 1.50909, 0.06714, 0.09155, -102.40750, 17.49150, -410589, 1830.00000, -209.00000, 916.00000, 1.50909, 0.06714, -0.03052, -103.45399, 16.44500, -10629, 1838.00000, -208.00000, 915.00000, 1.50909, 0.18921, -0.03052, -99.86600, 18.68750, -410693, 1833.00000, -208.00000, 915.00000, 1.50909, 0.12817, 0.03052, -97.17500, 20.63100, -4810733, 1837.00000, -209.00000, 914.00000, 1.50909, 0.06714, -0.03052, -97.17500, 20.63100, -410773, 1836.00000, -211.00000, 914.00000, 1.44806, 0.06714, -0.03052, -97.17500, 20.63100, -410813, 1833.00000, -209.00000, 911.00000, 1.38702, 0.00610, -0.03052, -97.17500, 20.63100, -410853, 1832.00000, -205.00000, 915.00000, 1.38702, -0.05493, 0.03052, -103.00550, 16.59450, -43.35500

10283, 1833.00000, -210.00000, 911.00000, 1.44806, 0.06714, 0.03052, -98.81950, 20.18250, -4810323, 1840.00000, -211.00000, 913.00000, 1.38702, 0.00610, 0.03052, -101.06200, 17.64100, -410363, 1836.00000, -210.00000, 914.00000, 1.44806, 0.00610, 0.15259, -100.91250, 18.23900, -410469, 1838.00000, -207.00000, 911.00000, 1.44806, 0.00610, 0.03052, -97.17500, 19.13600, -4710509, 1833.00000, -206.00000, 912.00000, 1.44806, 0.06714, 0.03052, -103.30450, 16.89350, -410549, 1834.00000, -205.00000, 915.00000, 1.50909, 0.06714, 0.09155, -102.40750, 17.49150, -410589, 1830.00000, -209.00000, 916.00000, 1.50909, 0.06714, -0.03052, -103.45399, 16.44500, -10629, 1838.00000, -208.00000, 915.00000, 1.50909, 0.18921, -0.03052, -99.86600, 18.68750, -410693, 1833.00000, -208.00000, 915.00000, 1.50909, 0.12817, 0.03052, -97.17500, 20.63100, -4810733, 1837.00000, -209.00000, 914.00000, 1.50909, 0.06714, -0.03052, -97.17500, 20.63100, -410773, 1836.00000, -211.00000, 914.00000, 1.44806, 0.06714, -0.03052, -97.17500, 20.63100, -410813, 1833.00000, -209.00000, 911.00000, 1.38702, 0.00610, -0.03052, -97.17500, 20.63100, -410853, 1832.00000, -205.00000, 915.00000, 1.38702, -0.05493, 0.03052, -103.00550, 16.59450, -43.35500

10323, 1840.00000, -211.00000, 913.00000, 1.38702, 0.00610, 0.03052, -101.06200, 17.64100, -410363, 1836.00000, -210.00000, 914.00000, 1.44806, 0.00610, 0.15259, -100.91250, 18.23900, -410469, 1838.00000, -207.00000, 911.00000, 1.44806, 0.00610, 0.03052, -97.17500, 19.13600, -4710509, 1833.00000, -206.00000, 912.00000, 1.44806, 0.06714, 0.03052, -103.30450, 16.89350, -410549, 1834.00000, -205.00000, 915.00000, 1.50909, 0.06714, 0.09155, -102.40750, 17.49150, -410589, 1830.00000, -209.00000, 916.00000, 1.50909, 0.06714, -0.03052, -103.45399, 16.44500, -10629, 1838.00000, -208.00000, 915.00000, 1.50909, 0.18921, -0.03052, -99.86600, 18.68750, -410693, 1833.00000, -208.00000, 915.00000, 1.50909, 0.12817, 0.03052, -97.17500, 20.63100, -4810733, 1837.00000, -209.00000, 914.00000, 1.50909, 0.06714, -0.03052, -97.17500, 20.63100, -410773, 1836.00000, -211.00000, 914.00000, 1.44806, 0.06714, -0.03052, -97.17500, 20.63100, -410813, 1833.00000, -209.00000, 911.00000, 1.38702, 0.00610, -0.03052, -97.17500, 20.63100, -410853, 1832.00000, -205.00000, 915.00000, 1.38702, -0.05493, 0.03052, -103.00550, 16.59450, -43.35500

10363, 1836.00000, -210.00000, 914.00000, 1.44806, 0.00610, 0.15259, -100.91250, 18.23900, -410469, 1838.00000, -207.00000, 911.00000, 1.44806, 0.00610, 0.03052, -97.17500, 19.13600, -4710509, 1833.00000, -206.00000, 912.00000, 1.44806, 0.06714, 0.03052, -103.30450, 16.89350, -410549, 1834.00000, -205.00000, 915.00000, 1.50909, 0.06714, 0.09155, -102.40750, 17.49150, -410589, 1830.00000, -209.00000, 916.00000, 1.50909, 0.06714, -0.03052, -103.45399, 16.44500, -10629, 1838.00000, -208.00000, 915.00000, 1.50909, 0.18921, -0.03052, -99.86600, 18.68750, -410693, 1833.00000, -208.00000, 915.00000, 1.50909, 0.12817, 0.03052, -97.17500, 20.63100, -4810733, 1837.00000, -209.00000, 914.00000, 1.50909, 0.06714, -0.03052, -97.17500, 20.63100, -410773, 1836.00000, -211.00000, 914.00000, 1.44806, 0.06714, -0.03052, -97.17500, 20.63100, -410813, 1833.00000, -209.00000, 911.00000, 1.38702, 0.00610, -0.03052, -97.17500, 20.63100, -410853, 1832.00000, -205.00000, 915.00000, 1.38702, -0.05493, 0.03052, -103.00550, 16.59450, -43.35500

10469, 1838.00000, -207.00000, 911.00000, 1.44806, 0.00610, 0.03052, -97.17500, 19.13600, -4710509, 1833.00000, -206.00000, 912.00000, 1.44806, 0.06714, 0.03052, -103.30450, 16.89350, -410549, 1834.00000, -205.00000, 915.00000, 1.50909, 0.06714, 0.09155, -102.40750, 17.49150, -410589, 1830.00000, -209.00000, 916.00000, 1.50909, 0.06714, -0.03052, -103.45399, 16.44500, -10629, 1838.00000, -208.00000, 915.00000, 1.50909, 0.18921, -0.03052, -99.86600, 18.68750, -410693, 1833.00000, -208.00000, 915.00000, 1.50909, 0.12817, 0.03052, -97.17500, 20.63100, -4810733, 1837.00000, -209.00000, 914.00000, 1.50909, 0.06714, -0.03052, -97.17500, 20.63100, -410773, 1836.00000, -211.00000, 914.00000, 1.44806, 0.06714, -0.03052, -97.17500, 20.63100, -410813, 1833.00000, -209.00000, 911.00000, 1.38702, 0.00610, -0.03052, -97.17500, 20.63100, -410853, 1832.00000, -205.00000, 915.00000, 1.38702, -0.05493, 0.03052, -103.00550, 16.59450, -43.35500

10509, 1833.00000, -206.00000, 912.00000, 1.44806, 0.06714, 0.03052, -103.30450, 16.89350, -410549, 1834.00000, -205.00000, 915.00000, 1.50909, 0.06714, 0.09155, -102.40750, 17.49150, -410589, 1830.00000, -209.00000, 916.00000, 1.50909, 0.06714, -0.03052, -103.45399, 16.44500, -10629, 1838.00000, -208.00000, 915.00000, 1.50909, 0.18921, -0.03052, -99.86600, 18.68750, -410693, 1833.00000, -208.00000, 915.00000, 1.50909, 0.12817, 0.03052, -97.17500, 20.63100, -4810733, 1837.00000, -209.00000, 914.00000, 1.50909, 0.06714, -0.03052, -97.17500, 20.63100, -410773, 1836.00000, -211.00000, 914.00000, 1.44806, 0.06714, -0.03052, -97.17500, 20.63100, -410813, 1833.00000, -209.00000, 911.00000, 1.38702, 0.00610, -0.03052, -97.17500, 20.63100, -410853, 1832.00000, -205.00000, 915.00000, 1.38702, -0.05493, 0.03052, -103.00550, 16.59450, -43.35500

10549, 1834.00000, -205.00000, 915.00000, 1.50909, 0.06714, 0.09155, -102.40750, 17.49150, -410589, 1830.00000, -209.00000, 916.00000, 1.50909, 0.06714, -0.03052, -103.45399, 16.44500, -10629, 1838.00000, -208.00000, 915.00000, 1.50909, 0.18921, -0.03052, -99.86600, 18.68750, -410693, 1833.00000, -208.00000, 915.00000, 1.50909, 0.12817, 0.03052, -97.17500, 20.63100, -4810733, 1837.00000, -209.00000, 914.00000, 1.50909, 0.06714, -0.03052, -97.17500, 20.63100, -410773, 1836.00000, -211.00000, 914.00000, 1.44806, 0.06714, -0.03052, -97.17500, 20.63100, -410813, 1833.00000, -209.00000, 911.00000, 1.38702, 0.00610, -0.03052, -97.17500, 20.63100, -410853, 1832.00000, -205.00000, 915.00000, 1.38702, -0.05493, 0.03052, -103.00550, 16.59450, -43.35500

10589, 1830.00000, -209.00000, 916.00000, 1.50909, 0.06714, -0.03052, -103.45399, 16.44500, -10629, 1838.00000, -208.00000, 915.00000, 1.50909, 0.18921, -0.03052, -99.86600, 18.68750, -410693, 1833.00000, -208.00000, 915.00000, 1.50909, 0.12817, 0.03052, -97.17500, 20.63100, -4810733, 1837.00000, -209.00000, 914.00000, 1.50909, 0.06714, -0.03052, -97.17500, 20.63100, -410773, 1836.00000, -211.00000, 914.00000, 1.44806, 0.06714, -0.03052, -97.17500, 20.63100, -410813, 1833.00000, -209.00000, 911.00000, 1.38702, 0.00610, -0.03052, -97.17500, 20.63100, -410853, 1832.00000, -205.00000, 915.00000, 1.38702, -0.05493, 0.03052, -103.00550, 16.59450, -43.35500

10629, 1838.00000, -208.00000, 915.00000, 1.50909, 0.18921, -0.03052, -99.86600, 18.68750, -410693, 1833.00000, -208.00000, 915.00000, 1.50909, 0.12817, 0.03052, -97.17500, 20.63100, -4810733, 1837.00000, -209.00000, 914.00000, 1.50909, 0.06714, -0.03052, -97.17500, 20.63100, -410773, 1836.00000, -211.00000, 914.00000, 1.44806, 0.06714, -0.03052, -97.17500, 20.63100, -410813, 1833.00000, -209.00000, 911.00000, 1.38702, 0.00610, -0.03052, -97.17500, 20.63100, -410853, 1832.00000, -205.00000, 915.00000, 1.38702, -0.05493, 0.03052, -103.00550, 16.59450, -43.35500

10693, 1833.00000, -208.00000, 915.00000, 1.50909, 0.12817, 0.03052, -97.17500, 20.63100, -4810733, 1837.00000, -209.00000, 914.00000, 1.50909, 0.06714, -0.03052, -97.17500, 20.63100, -410773, 1836.00000, -211.00000, 914.00000, 1.44806, 0.06714, -0.03052, -97.17500, 20.63100, -410813, 1833.00000, -209.00000, 911.00000, 1.38702, 0.00610, -0.03052, -97.17500, 20.63100, -410853, 1832.00000, -205.00000, 915.00000, 1.38702, -0.05493, 0.03052, -103.00550, 16.59450, -43.35500

10733, 1837.00000, -209.00000, 914.00000, 1.50909, 0.06714, -0.03052, -97.17500, 20.63100, -410773, 1836.00000, -211.00000, 914.00000, 1.44806, 0.06714, -0.03052, -97.17500, 20.63100, -410813, 1833.00000, -209.00000, 911.00000, 1.38702, 0.00610, -0.03052, -97.17500, 20.63100, -410853, 1832.00000, -205.00000, 915.00000, 1.38702, -0.05493, 0.03052, -103.00550, 16.59450, -43.35500

10773, 1836.00000, -211.00000, 914.00000, 1.44806, 0.06714, -0.03052, -97.17500, 20.63100, -410813, 1833.00000, -209.00000, 911.00000, 1.38702, 0.00610, -0.03052, -97.17500, 20.63100, -410853, 1832.00000, -205.00000, 915.00000, 1.38702, -0.05493, 0.03052, -103.00550, 16.59450, -43.35500

10813, 1833.00000, -209.00000, 911.00000, 1.38702, 0.00610, -0.03052, -97.17500, 20.63100, -410853, 1832.00000, -205.00000, 915.00000, 1.38702, -0.05493, 0.03052, -103.00550, 16.59450, -43.35500

10853, 1832.00000, -205.00000, 915.00000, 1.38702, -0.05493, 0.03052, -103.00550, 16.59450, -43.35500

11032, 1830.00000, -209.00000, 915.00000, 1.50909, 0.06714, -0.09155, -102.55700, 17.64100, -11072, 1833.00000, -210.00000, 913.00000, 1.44806, -0.05493, 0.03052, -102.55700, 17.64100, -11112, 1831.00000, -207.00000, 913.00000, 1.44806, 0.06714, 0.03052, -102.25800, 15.39850, -411152, 1836.00000, -208.00000, 912.00000, 1.44806, 0.06714, -0.09155, -102.25800, 15.39850, -11192, 1833.00000, -208.00000, 913.00000, 1.44806, 0.06714, -0.03052, -101.51050, 16.89350, -11232, 1834.00000, -210.00000, 911.00000, 1.50909, 0.06714, -0.03052, -101.95900, 17.19250, -11272, 1833.00000, -207.00000, 915.00000, 1.44806, 0.00610, -0.03052, -101.95900, 16.74400, -11312, 1834.00000, -212.00000, 912.00000, 1.44806, 0.00610, 0.03052, -101.95900, 16.74400, -411352, 1834.00000, -208.00000, 913.00000, 1.50909, 0.12817, 0.03052, -101.80950, 18.38850, -411392, 1837.00000, -209.00000, 916.00000, 1.44806, 0.06714, 0.03052, -103.15500, 18.98650, -411432, 1836.00000, -210.00000, 918.00000, 1.50909, 0.06714, 0.03052, -101.95900, 18.23900, -411472, 1834.00000, -208.00000, 914.00000, 1.50909, 0.00610, -0.03052, -101.95900, 18.23900, -11512, 1830.00000, -211.00000, 910.00000, 1.44806, 0.06714, 0.03052, -101.95900, 18.23900, -411560, 1834.00000, -210.00000, 911.00000, 1.44806, 0.12817, 0.09155, -101.95900, 18.23900, -411600, 1835.00000, -209.00000, 915.00000, 1.50909, -0.05493, -0.09155, -100.76300, 17.64100, 11640, 1833.00000, -209.00000, 915.00000, 1.44806, 0.12817, 0.03052, -103.30450, 17.64100, -411680, 1835.00000, -208.00000, 916.00000, 1.44806, 0.12817, 0.03052, -101.06200, 18.08950, -411720, 1832.00000, -211.00000, 913.00000, 1.44806, 0.00610, 0.03052, -101.66000, 16.44500, -411760, 1838.00000, -206.00000, 913.00000, 1.44806, 0.12817, 0.03052, -101.66000, 16.44500, -411810, 1834.00000, -210.00000, 911.00000, 1.57013, 0.12817, -0.03052, -102.70650, 15.69750, -11850, 1837.00000, -210.00000, 912.00000, 1.50909, 0.06714, -0.03052, -99.71650, 21.37850, -411890, 1838.00000, -210.00000, 912.00000, 1.44806, 0.06714, 0.03052, -99.71650, 21.37850, -4511930, 1834.00000, -207.00000, 915.00000, 1.50909, 0.00610, 0.03052, -101.66000, 15.99650, -411970, 1832.00000, -206.00000, 915.00000, 1.44806, 0.06714, 0.03052, -101.36100, 17.49150, -412010, 1833.00000, -206.00000, 917.00000, 1.44806, 0.12817, -0.03052, -101.36100, 17.49150, -43.95300

11072, 1833.00000, -210.00000, 913.00000, 1.44806, -0.05493, 0.03052, -102.55700, 17.64100, -11112, 1831.00000, -207.00000, 913.00000, 1.44806, 0.06714, 0.03052, -102.25800, 15.39850, -411152, 1836.00000, -208.00000, 912.00000, 1.44806, 0.06714, -0.09155, -102.25800, 15.39850, -11192, 1833.00000, -208.00000, 913.00000, 1.44806, 0.06714, -0.03052, -101.51050, 16.89350, -11232, 1834.00000, -210.00000, 911.00000, 1.50909, 0.06714, -0.03052, -101.95900, 17.19250, -11272, 1833.00000, -207.00000, 915.00000, 1.44806, 0.00610, -0.03052, -101.95900, 16.74400, -11312, 1834.00000, -212.00000, 912.00000, 1.44806, 0.00610, 0.03052, -101.95900, 16.74400, -411352, 1834.00000, -208.00000, 913.00000, 1.50909, 0.12817, 0.03052, -101.80950, 18.38850, -411392, 1837.00000, -209.00000, 916.00000, 1.44806, 0.06714, 0.03052, -103.15500, 18.98650, -411432, 1836.00000, -210.00000, 918.00000, 1.50909, 0.06714, 0.03052, -101.95900, 18.23900, -411472, 1834.00000, -208.00000, 914.00000, 1.50909, 0.00610, -0.03052, -101.95900, 18.23900, -11512, 1830.00000, -211.00000, 910.00000, 1.44806, 0.06714, 0.03052, -101.95900, 18.23900, -411560, 1834.00000, -210.00000, 911.00000, 1.44806, 0.12817, 0.09155, -101.95900, 18.23900, -411600, 1835.00000, -209.00000, 915.00000, 1.50909, -0.05493, -0.09155, -100.76300, 17.64100, 11640, 1833.00000, -209.00000, 915.00000, 1.44806, 0.12817, 0.03052, -103.30450, 17.64100, -411680, 1835.00000, -208.00000, 916.00000, 1.44806, 0.12817, 0.03052, -101.06200, 18.08950, -411720, 1832.00000, -211.00000, 913.00000, 1.44806, 0.00610, 0.03052, -101.66000, 16.44500, -411760, 1838.00000, -206.00000, 913.00000, 1.44806, 0.12817, 0.03052, -101.66000, 16.44500, -411810, 1834.00000, -210.00000, 911.00000, 1.57013, 0.12817, -0.03052, -102.70650, 15.69750, -11850, 1837.00000, -210.00000, 912.00000, 1.50909, 0.06714, -0.03052, -99.71650, 21.37850, -411890, 1838.00000, -210.00000, 912.00000, 1.44806, 0.06714, 0.03052, -99.71650, 21.37850, -4511930, 1834.00000, -207.00000, 915.00000, 1.50909, 0.00610, 0.03052, -101.66000, 15.99650, -411970, 1832.00000, -206.00000, 915.00000, 1.44806, 0.06714, 0.03052, -101.36100, 17.49150, -412010, 1833.00000, -206.00000, 917.00000, 1.44806, 0.12817, -0.03052, -101.36100, 17.49150, -43.95300

11112, 1831.00000, -207.00000, 913.00000, 1.44806, 0.06714, 0.03052, -102.25800, 15.39850, -411152, 1836.00000, -208.00000, 912.00000, 1.44806, 0.06714, -0.09155, -102.25800, 15.39850, -11192, 1833.00000, -208.00000, 913.00000, 1.44806, 0.06714, -0.03052, -101.51050, 16.89350, -11232, 1834.00000, -210.00000, 911.00000, 1.50909, 0.06714, -0.03052, -101.95900, 17.19250, -11272, 1833.00000, -207.00000, 915.00000, 1.44806, 0.00610, -0.03052, -101.95900, 16.74400, -11312, 1834.00000, -212.00000, 912.00000, 1.44806, 0.00610, 0.03052, -101.95900, 16.74400, -411352, 1834.00000, -208.00000, 913.00000, 1.50909, 0.12817, 0.03052, -101.80950, 18.38850, -411392, 1837.00000, -209.00000, 916.00000, 1.44806, 0.06714, 0.03052, -103.15500, 18.98650, -411432, 1836.00000, -210.00000, 918.00000, 1.50909, 0.06714, 0.03052, -101.95900, 18.23900, -411472, 1834.00000, -208.00000, 914.00000, 1.50909, 0.00610, -0.03052, -101.95900, 18.23900, -11512, 1830.00000, -211.00000, 910.00000, 1.44806, 0.06714, 0.03052, -101.95900, 18.23900, -411560, 1834.00000, -210.00000, 911.00000, 1.44806, 0.12817, 0.09155, -101.95900, 18.23900, -411600, 1835.00000, -209.00000, 915.00000, 1.50909, -0.05493, -0.09155, -100.76300, 17.64100, 11640, 1833.00000, -209.00000, 915.00000, 1.44806, 0.12817, 0.03052, -103.30450, 17.64100, -411680, 1835.00000, -208.00000, 916.00000, 1.44806, 0.12817, 0.03052, -101.06200, 18.08950, -411720, 1832.00000, -211.00000, 913.00000, 1.44806, 0.00610, 0.03052, -101.66000, 16.44500, -411760, 1838.00000, -206.00000, 913.00000, 1.44806, 0.12817, 0.03052, -101.66000, 16.44500, -411810, 1834.00000, -210.00000, 911.00000, 1.57013, 0.12817, -0.03052, -102.70650, 15.69750, -11850, 1837.00000, -210.00000, 912.00000, 1.50909, 0.06714, -0.03052, -99.71650, 21.37850, -411890, 1838.00000, -210.00000, 912.00000, 1.44806, 0.06714, 0.03052, -99.71650, 21.37850, -4511930, 1834.00000, -207.00000, 915.00000, 1.50909, 0.00610, 0.03052, -101.66000, 15.99650, -411970, 1832.00000, -206.00000, 915.00000, 1.44806, 0.06714, 0.03052, -101.36100, 17.49150, -412010, 1833.00000, -206.00000, 917.00000, 1.44806, 0.12817, -0.03052, -101.36100, 17.49150, -43.95300

11152, 1836.00000, -208.00000, 912.00000, 1.44806, 0.06714, -0.09155, -102.25800, 15.39850, -11192, 1833.00000, -208.00000, 913.00000, 1.44806, 0.06714, -0.03052, -101.51050, 16.89350, -11232, 1834.00000, -210.00000, 911.00000, 1.50909, 0.06714, -0.03052, -101.95900, 17.19250, -11272, 1833.00000, -207.00000, 915.00000, 1.44806, 0.00610, -0.03052, -101.95900, 16.74400, -11312, 1834.00000, -212.00000, 912.00000, 1.44806, 0.00610, 0.03052, -101.95900, 16.74400, -411352, 1834.00000, -208.00000, 913.00000, 1.50909, 0.12817, 0.03052, -101.80950, 18.38850, -411392, 1837.00000, -209.00000, 916.00000, 1.44806, 0.06714, 0.03052, -103.15500, 18.98650, -411432, 1836.00000, -210.00000, 918.00000, 1.50909, 0.06714, 0.03052, -101.95900, 18.23900, -411472, 1834.00000, -208.00000, 914.00000, 1.50909, 0.00610, -0.03052, -101.95900, 18.23900, -11512, 1830.00000, -211.00000, 910.00000, 1.44806, 0.06714, 0.03052, -101.95900, 18.23900, -411560, 1834.00000, -210.00000, 911.00000, 1.44806, 0.12817, 0.09155, -101.95900, 18.23900, -411600, 1835.00000, -209.00000, 915.00000, 1.50909, -0.05493, -0.09155, -100.76300, 17.64100, 11640, 1833.00000, -209.00000, 915.00000, 1.44806, 0.12817, 0.03052, -103.30450, 17.64100, -411680, 1835.00000, -208.00000, 916.00000, 1.44806, 0.12817, 0.03052, -101.06200, 18.08950, -411720, 1832.00000, -211.00000, 913.00000, 1.44806, 0.00610, 0.03052, -101.66000, 16.44500, -411760, 1838.00000, -206.00000, 913.00000, 1.44806, 0.12817, 0.03052, -101.66000, 16.44500, -411810, 1834.00000, -210.00000, 911.00000, 1.57013, 0.12817, -0.03052, -102.70650, 15.69750, -11850, 1837.00000, -210.00000, 912.00000, 1.50909, 0.06714, -0.03052, -99.71650, 21.37850, -411890, 1838.00000, -210.00000, 912.00000, 1.44806, 0.06714, 0.03052, -99.71650, 21.37850, -4511930, 1834.00000, -207.00000, 915.00000, 1.50909, 0.00610, 0.03052, -101.66000, 15.99650, -411970, 1832.00000, -206.00000, 915.00000, 1.44806, 0.06714, 0.03052, -101.36100, 17.49150, -412010, 1833.00000, -206.00000, 917.00000, 1.44806, 0.12817, -0.03052, -101.36100, 17.49150, -43.95300

11192, 1833.00000, -208.00000, 913.00000, 1.44806, 0.06714, -0.03052, -101.51050, 16.89350, -11232, 1834.00000, -210.00000, 911.00000, 1.50909, 0.06714, -0.03052, -101.95900, 17.19250, -11272, 1833.00000, -207.00000, 915.00000, 1.44806, 0.00610, -0.03052, -101.95900, 16.74400, -11312, 1834.00000, -212.00000, 912.00000, 1.44806, 0.00610, 0.03052, -101.95900, 16.74400, -411352, 1834.00000, -208.00000, 913.00000, 1.50909, 0.12817, 0.03052, -101.80950, 18.38850, -411392, 1837.00000, -209.00000, 916.00000, 1.44806, 0.06714, 0.03052, -103.15500, 18.98650, -411432, 1836.00000, -210.00000, 918.00000, 1.50909, 0.06714, 0.03052, -101.95900, 18.23900, -411472, 1834.00000, -208.00000, 914.00000, 1.50909, 0.00610, -0.03052, -101.95900, 18.23900, -11512, 1830.00000, -211.00000, 910.00000, 1.44806, 0.06714, 0.03052, -101.95900, 18.23900, -411560, 1834.00000, -210.00000, 911.00000, 1.44806, 0.12817, 0.09155, -101.95900, 18.23900, -411600, 1835.00000, -209.00000, 915.00000, 1.50909, -0.05493, -0.09155, -100.76300, 17.64100, 11640, 1833.00000, -209.00000, 915.00000, 1.44806, 0.12817, 0.03052, -103.30450, 17.64100, -411680, 1835.00000, -208.00000, 916.00000, 1.44806, 0.12817, 0.03052, -101.06200, 18.08950, -411720, 1832.00000, -211.00000, 913.00000, 1.44806, 0.00610, 0.03052, -101.66000, 16.44500, -411760, 1838.00000, -206.00000, 913.00000, 1.44806, 0.12817, 0.03052, -101.66000, 16.44500, -411810, 1834.00000, -210.00000, 911.00000, 1.57013, 0.12817, -0.03052, -102.70650, 15.69750, -11850, 1837.00000, -210.00000, 912.00000, 1.50909, 0.06714, -0.03052, -99.71650, 21.37850, -411890, 1838.00000, -210.00000, 912.00000, 1.44806, 0.06714, 0.03052, -99.71650, 21.37850, -4511930, 1834.00000, -207.00000, 915.00000, 1.50909, 0.00610, 0.03052, -101.66000, 15.99650, -411970, 1832.00000, -206.00000, 915.00000, 1.44806, 0.06714, 0.03052, -101.36100, 17.49150, -412010, 1833.00000, -206.00000, 917.00000, 1.44806, 0.12817, -0.03052, -101.36100, 17.49150, -43.95300

11232, 1834.00000, -210.00000, 911.00000, 1.50909, 0.06714, -0.03052, -101.95900, 17.19250, -11272, 1833.00000, -207.00000, 915.00000, 1.44806, 0.00610, -0.03052, -101.95900, 16.74400, -11312, 1834.00000, -212.00000, 912.00000, 1.44806, 0.00610, 0.03052, -101.95900, 16.74400, -411352, 1834.00000, -208.00000, 913.00000, 1.50909, 0.12817, 0.03052, -101.80950, 18.38850, -411392, 1837.00000, -209.00000, 916.00000, 1.44806, 0.06714, 0.03052, -103.15500, 18.98650, -411432, 1836.00000, -210.00000, 918.00000, 1.50909, 0.06714, 0.03052, -101.95900, 18.23900, -411472, 1834.00000, -208.00000, 914.00000, 1.50909, 0.00610, -0.03052, -101.95900, 18.23900, -11512, 1830.00000, -211.00000, 910.00000, 1.44806, 0.06714, 0.03052, -101.95900, 18.23900, -411560, 1834.00000, -210.00000, 911.00000, 1.44806, 0.12817, 0.09155, -101.95900, 18.23900, -411600, 1835.00000, -209.00000, 915.00000, 1.50909, -0.05493, -0.09155, -100.76300, 17.64100, 11640, 1833.00000, -209.00000, 915.00000, 1.44806, 0.12817, 0.03052, -103.30450, 17.64100, -411680, 1835.00000, -208.00000, 916.00000, 1.44806, 0.12817, 0.03052, -101.06200, 18.08950, -411720, 1832.00000, -211.00000, 913.00000, 1.44806, 0.00610, 0.03052, -101.66000, 16.44500, -411760, 1838.00000, -206.00000, 913.00000, 1.44806, 0.12817, 0.03052, -101.66000, 16.44500, -411810, 1834.00000, -210.00000, 911.00000, 1.57013, 0.12817, -0.03052, -102.70650, 15.69750, -11850, 1837.00000, -210.00000, 912.00000, 1.50909, 0.06714, -0.03052, -99.71650, 21.37850, -411890, 1838.00000, -210.00000, 912.00000, 1.44806, 0.06714, 0.03052, -99.71650, 21.37850, -4511930, 1834.00000, -207.00000, 915.00000, 1.50909, 0.00610, 0.03052, -101.66000, 15.99650, -411970, 1832.00000, -206.00000, 915.00000, 1.44806, 0.06714, 0.03052, -101.36100, 17.49150, -412010, 1833.00000, -206.00000, 917.00000, 1.44806, 0.12817, -0.03052, -101.36100, 17.49150, -43.95300

11272, 1833.00000, -207.00000, 915.00000, 1.44806, 0.00610, -0.03052, -101.95900, 16.74400, -11312, 1834.00000, -212.00000, 912.00000, 1.44806, 0.00610, 0.03052, -101.95900, 16.74400, -411352, 1834.00000, -208.00000, 913.00000, 1.50909, 0.12817, 0.03052, -101.80950, 18.38850, -411392, 1837.00000, -209.00000, 916.00000, 1.44806, 0.06714, 0.03052, -103.15500, 18.98650, -411432, 1836.00000, -210.00000, 918.00000, 1.50909, 0.06714, 0.03052, -101.95900, 18.23900, -411472, 1834.00000, -208.00000, 914.00000, 1.50909, 0.00610, -0.03052, -101.95900, 18.23900, -11512, 1830.00000, -211.00000, 910.00000, 1.44806, 0.06714, 0.03052, -101.95900, 18.23900, -411560, 1834.00000, -210.00000, 911.00000, 1.44806, 0.12817, 0.09155, -101.95900, 18.23900, -411600, 1835.00000, -209.00000, 915.00000, 1.50909, -0.05493, -0.09155, -100.76300, 17.64100, 11640, 1833.00000, -209.00000, 915.00000, 1.44806, 0.12817, 0.03052, -103.30450, 17.64100, -411680, 1835.00000, -208.00000, 916.00000, 1.44806, 0.12817, 0.03052, -101.06200, 18.08950, -411720, 1832.00000, -211.00000, 913.00000, 1.44806, 0.00610, 0.03052, -101.66000, 16.44500, -411760, 1838.00000, -206.00000, 913.00000, 1.44806, 0.12817, 0.03052, -101.66000, 16.44500, -411810, 1834.00000, -210.00000, 911.00000, 1.57013, 0.12817, -0.03052, -102.70650, 15.69750, -11850, 1837.00000, -210.00000, 912.00000, 1.50909, 0.06714, -0.03052, -99.71650, 21.37850, -411890, 1838.00000, -210.00000, 912.00000, 1.44806, 0.06714, 0.03052, -99.71650, 21.37850, -4511930, 1834.00000, -207.00000, 915.00000, 1.50909, 0.00610, 0.03052, -101.66000, 15.99650, -411970, 1832.00000, -206.00000, 915.00000, 1.44806, 0.06714, 0.03052, -101.36100, 17.49150, -412010, 1833.00000, -206.00000, 917.00000, 1.44806, 0.12817, -0.03052, -101.36100, 17.49150, -43.95300

11312, 1834.00000, -212.00000, 912.00000, 1.44806, 0.00610, 0.03052, -101.95900, 16.74400, -411352, 1834.00000, -208.00000, 913.00000, 1.50909, 0.12817, 0.03052, -101.80950, 18.38850, -411392, 1837.00000, -209.00000, 916.00000, 1.44806, 0.06714, 0.03052, -103.15500, 18.98650, -411432, 1836.00000, -210.00000, 918.00000, 1.50909, 0.06714, 0.03052, -101.95900, 18.23900, -411472, 1834.00000, -208.00000, 914.00000, 1.50909, 0.00610, -0.03052, -101.95900, 18.23900, -11512, 1830.00000, -211.00000, 910.00000, 1.44806, 0.06714, 0.03052, -101.95900, 18.23900, -411560, 1834.00000, -210.00000, 911.00000, 1.44806, 0.12817, 0.09155, -101.95900, 18.23900, -411600, 1835.00000, -209.00000, 915.00000, 1.50909, -0.05493, -0.09155, -100.76300, 17.64100, 11640, 1833.00000, -209.00000, 915.00000, 1.44806, 0.12817, 0.03052, -103.30450, 17.64100, -411680, 1835.00000, -208.00000, 916.00000, 1.44806, 0.12817, 0.03052, -101.06200, 18.08950, -411720, 1832.00000, -211.00000, 913.00000, 1.44806, 0.00610, 0.03052, -101.66000, 16.44500, -411760, 1838.00000, -206.00000, 913.00000, 1.44806, 0.12817, 0.03052, -101.66000, 16.44500, -411810, 1834.00000, -210.00000, 911.00000, 1.57013, 0.12817, -0.03052, -102.70650, 15.69750, -11850, 1837.00000, -210.00000, 912.00000, 1.50909, 0.06714, -0.03052, -99.71650, 21.37850, -411890, 1838.00000, -210.00000, 912.00000, 1.44806, 0.06714, 0.03052, -99.71650, 21.37850, -4511930, 1834.00000, -207.00000, 915.00000, 1.50909, 0.00610, 0.03052, -101.66000, 15.99650, -411970, 1832.00000, -206.00000, 915.00000, 1.44806, 0.06714, 0.03052, -101.36100, 17.49150, -412010, 1833.00000, -206.00000, 917.00000, 1.44806, 0.12817, -0.03052, -101.36100, 17.49150, -43.95300

11352, 1834.00000, -208.00000, 913.00000, 1.50909, 0.12817, 0.03052, -101.80950, 18.38850, -411392, 1837.00000, -209.00000, 916.00000, 1.44806, 0.06714, 0.03052, -103.15500, 18.98650, -411432, 1836.00000, -210.00000, 918.00000, 1.50909, 0.06714, 0.03052, -101.95900, 18.23900, -411472, 1834.00000, -208.00000, 914.00000, 1.50909, 0.00610, -0.03052, -101.95900, 18.23900, -11512, 1830.00000, -211.00000, 910.00000, 1.44806, 0.06714, 0.03052, -101.95900, 18.23900, -411560, 1834.00000, -210.00000, 911.00000, 1.44806, 0.12817, 0.09155, -101.95900, 18.23900, -411600, 1835.00000, -209.00000, 915.00000, 1.50909, -0.05493, -0.09155, -100.76300, 17.64100, 11640, 1833.00000, -209.00000, 915.00000, 1.44806, 0.12817, 0.03052, -103.30450, 17.64100, -411680, 1835.00000, -208.00000, 916.00000, 1.44806, 0.12817, 0.03052, -101.06200, 18.08950, -411720, 1832.00000, -211.00000, 913.00000, 1.44806, 0.00610, 0.03052, -101.66000, 16.44500, -411760, 1838.00000, -206.00000, 913.00000, 1.44806, 0.12817, 0.03052, -101.66000, 16.44500, -411810, 1834.00000, -210.00000, 911.00000, 1.57013, 0.12817, -0.03052, -102.70650, 15.69750, -11850, 1837.00000, -210.00000, 912.00000, 1.50909, 0.06714, -0.03052, -99.71650, 21.37850, -411890, 1838.00000, -210.00000, 912.00000, 1.44806, 0.06714, 0.03052, -99.71650, 21.37850, -4511930, 1834.00000, -207.00000, 915.00000, 1.50909, 0.00610, 0.03052, -101.66000, 15.99650, -411970, 1832.00000, -206.00000, 915.00000, 1.44806, 0.06714, 0.03052, -101.36100, 17.49150, -412010, 1833.00000, -206.00000, 917.00000, 1.44806, 0.12817, -0.03052, -101.36100, 17.49150, -43.95300

11392, 1837.00000, -209.00000, 916.00000, 1.44806, 0.06714, 0.03052, -103.15500, 18.98650, -411432, 1836.00000, -210.00000, 918.00000, 1.50909, 0.06714, 0.03052, -101.95900, 18.23900, -411472, 1834.00000, -208.00000, 914.00000, 1.50909, 0.00610, -0.03052, -101.95900, 18.23900, -11512, 1830.00000, -211.00000, 910.00000, 1.44806, 0.06714, 0.03052, -101.95900, 18.23900, -411560, 1834.00000, -210.00000, 911.00000, 1.44806, 0.12817, 0.09155, -101.95900, 18.23900, -411600, 1835.00000, -209.00000, 915.00000, 1.50909, -0.05493, -0.09155, -100.76300, 17.64100, 11640, 1833.00000, -209.00000, 915.00000, 1.44806, 0.12817, 0.03052, -103.30450, 17.64100, -411680, 1835.00000, -208.00000, 916.00000, 1.44806, 0.12817, 0.03052, -101.06200, 18.08950, -411720, 1832.00000, -211.00000, 913.00000, 1.44806, 0.00610, 0.03052, -101.66000, 16.44500, -411760, 1838.00000, -206.00000, 913.00000, 1.44806, 0.12817, 0.03052, -101.66000, 16.44500, -411810, 1834.00000, -210.00000, 911.00000, 1.57013, 0.12817, -0.03052, -102.70650, 15.69750, -11850, 1837.00000, -210.00000, 912.00000, 1.50909, 0.06714, -0.03052, -99.71650, 21.37850, -411890, 1838.00000, -210.00000, 912.00000, 1.44806, 0.06714, 0.03052, -99.71650, 21.37850, -4511930, 1834.00000, -207.00000, 915.00000, 1.50909, 0.00610, 0.03052, -101.66000, 15.99650, -411970, 1832.00000, -206.00000, 915.00000, 1.44806, 0.06714, 0.03052, -101.36100, 17.49150, -412010, 1833.00000, -206.00000, 917.00000, 1.44806, 0.12817, -0.03052, -101.36100, 17.49150, -43.95300

11432, 1836.00000, -210.00000, 918.00000, 1.50909, 0.06714, 0.03052, -101.95900, 18.23900, -411472, 1834.00000, -208.00000, 914.00000, 1.50909, 0.00610, -0.03052, -101.95900, 18.23900, -11512, 1830.00000, -211.00000, 910.00000, 1.44806, 0.06714, 0.03052, -101.95900, 18.23900, -411560, 1834.00000, -210.00000, 911.00000, 1.44806, 0.12817, 0.09155, -101.95900, 18.23900, -411600, 1835.00000, -209.00000, 915.00000, 1.50909, -0.05493, -0.09155, -100.76300, 17.64100, 11640, 1833.00000, -209.00000, 915.00000, 1.44806, 0.12817, 0.03052, -103.30450, 17.64100, -411680, 1835.00000, -208.00000, 916.00000, 1.44806, 0.12817, 0.03052, -101.06200, 18.08950, -411720, 1832.00000, -211.00000, 913.00000, 1.44806, 0.00610, 0.03052, -101.66000, 16.44500, -411760, 1838.00000, -206.00000, 913.00000, 1.44806, 0.12817, 0.03052, -101.66000, 16.44500, -411810, 1834.00000, -210.00000, 911.00000, 1.57013, 0.12817, -0.03052, -102.70650, 15.69750, -11850, 1837.00000, -210.00000, 912.00000, 1.50909, 0.06714, -0.03052, -99.71650, 21.37850, -411890, 1838.00000, -210.00000, 912.00000, 1.44806, 0.06714, 0.03052, -99.71650, 21.37850, -4511930, 1834.00000, -207.00000, 915.00000, 1.50909, 0.00610, 0.03052, -101.66000, 15.99650, -411970, 1832.00000, -206.00000, 915.00000, 1.44806, 0.06714, 0.03052, -101.36100, 17.49150, -412010, 1833.00000, -206.00000, 917.00000, 1.44806, 0.12817, -0.03052, -101.36100, 17.49150, -43.95300

11472, 1834.00000, -208.00000, 914.00000, 1.50909, 0.00610, -0.03052, -101.95900, 18.23900, -11512, 1830.00000, -211.00000, 910.00000, 1.44806, 0.06714, 0.03052, -101.95900, 18.23900, -411560, 1834.00000, -210.00000, 911.00000, 1.44806, 0.12817, 0.09155, -101.95900, 18.23900, -411600, 1835.00000, -209.00000, 915.00000, 1.50909, -0.05493, -0.09155, -100.76300, 17.64100, 11640, 1833.00000, -209.00000, 915.00000, 1.44806, 0.12817, 0.03052, -103.30450, 17.64100, -411680, 1835.00000, -208.00000, 916.00000, 1.44806, 0.12817, 0.03052, -101.06200, 18.08950, -411720, 1832.00000, -211.00000, 913.00000, 1.44806, 0.00610, 0.03052, -101.66000, 16.44500, -411760, 1838.00000, -206.00000, 913.00000, 1.44806, 0.12817, 0.03052, -101.66000, 16.44500, -411810, 1834.00000, -210.00000, 911.00000, 1.57013, 0.12817, -0.03052, -102.70650, 15.69750, -11850, 1837.00000, -210.00000, 912.00000, 1.50909, 0.06714, -0.03052, -99.71650, 21.37850, -411890, 1838.00000, -210.00000, 912.00000, 1.44806, 0.06714, 0.03052, -99.71650, 21.37850, -4511930, 1834.00000, -207.00000, 915.00000, 1.50909, 0.00610, 0.03052, -101.66000, 15.99650, -411970, 1832.00000, -206.00000, 915.00000, 1.44806, 0.06714, 0.03052, -101.36100, 17.49150, -412010, 1833.00000, -206.00000, 917.00000, 1.44806, 0.12817, -0.03052, -101.36100, 17.49150, -43.95300

11512, 1830.00000, -211.00000, 910.00000, 1.44806, 0.06714, 0.03052, -101.95900, 18.23900, -411560, 1834.00000, -210.00000, 911.00000, 1.44806, 0.12817, 0.09155, -101.95900, 18.23900, -411600, 1835.00000, -209.00000, 915.00000, 1.50909, -0.05493, -0.09155, -100.76300, 17.64100, 11640, 1833.00000, -209.00000, 915.00000, 1.44806, 0.12817, 0.03052, -103.30450, 17.64100, -411680, 1835.00000, -208.00000, 916.00000, 1.44806, 0.12817, 0.03052, -101.06200, 18.08950, -411720, 1832.00000, -211.00000, 913.00000, 1.44806, 0.00610, 0.03052, -101.66000, 16.44500, -411760, 1838.00000, -206.00000, 913.00000, 1.44806, 0.12817, 0.03052, -101.66000, 16.44500, -411810, 1834.00000, -210.00000, 911.00000, 1.57013, 0.12817, -0.03052, -102.70650, 15.69750, -11850, 1837.00000, -210.00000, 912.00000, 1.50909, 0.06714, -0.03052, -99.71650, 21.37850, -411890, 1838.00000, -210.00000, 912.00000, 1.44806, 0.06714, 0.03052, -99.71650, 21.37850, -4511930, 1834.00000, -207.00000, 915.00000, 1.50909, 0.00610, 0.03052, -101.66000, 15.99650, -411970, 1832.00000, -206.00000, 915.00000, 1.44806, 0.06714, 0.03052, -101.36100, 17.49150, -412010, 1833.00000, -206.00000, 917.00000, 1.44806, 0.12817, -0.03052, -101.36100, 17.49150, -43.95300

11560, 1834.00000, -210.00000, 911.00000, 1.44806, 0.12817, 0.09155, -101.95900, 18.23900, -411600, 1835.00000, -209.00000, 915.00000, 1.50909, -0.05493, -0.09155, -100.76300, 17.64100, 11640, 1833.00000, -209.00000, 915.00000, 1.44806, 0.12817, 0.03052, -103.30450, 17.64100, -411680, 1835.00000, -208.00000, 916.00000, 1.44806, 0.12817, 0.03052, -101.06200, 18.08950, -411720, 1832.00000, -211.00000, 913.00000, 1.44806, 0.00610, 0.03052, -101.66000, 16.44500, -411760, 1838.00000, -206.00000, 913.00000, 1.44806, 0.12817, 0.03052, -101.66000, 16.44500, -411810, 1834.00000, -210.00000, 911.00000, 1.57013, 0.12817, -0.03052, -102.70650, 15.69750, -11850, 1837.00000, -210.00000, 912.00000, 1.50909, 0.06714, -0.03052, -99.71650, 21.37850, -411890, 1838.00000, -210.00000, 912.00000, 1.44806, 0.06714, 0.03052, -99.71650, 21.37850, -4511930, 1834.00000, -207.00000, 915.00000, 1.50909, 0.00610, 0.03052, -101.66000, 15.99650, -411970, 1832.00000, -206.00000, 915.00000, 1.44806, 0.06714, 0.03052, -101.36100, 17.49150, -412010, 1833.00000, -206.00000, 917.00000, 1.44806, 0.12817, -0.03052, -101.36100, 17.49150, -43.95300

11600, 1835.00000, -209.00000, 915.00000, 1.50909, -0.05493, -0.09155, -100.76300, 17.64100, 11640, 1833.00000, -209.00000, 915.00000, 1.44806, 0.12817, 0.03052, -103.30450, 17.64100, -411680, 1835.00000, -208.00000, 916.00000, 1.44806, 0.12817, 0.03052, -101.06200, 18.08950, -411720, 1832.00000, -211.00000, 913.00000, 1.44806, 0.00610, 0.03052, -101.66000, 16.44500, -411760, 1838.00000, -206.00000, 913.00000, 1.44806, 0.12817, 0.03052, -101.66000, 16.44500, -411810, 1834.00000, -210.00000, 911.00000, 1.57013, 0.12817, -0.03052, -102.70650, 15.69750, -11850, 1837.00000, -210.00000, 912.00000, 1.50909, 0.06714, -0.03052, -99.71650, 21.37850, -411890, 1838.00000, -210.00000, 912.00000, 1.44806, 0.06714, 0.03052, -99.71650, 21.37850, -4511930, 1834.00000, -207.00000, 915.00000, 1.50909, 0.00610, 0.03052, -101.66000, 15.99650, -411970, 1832.00000, -206.00000, 915.00000, 1.44806, 0.06714, 0.03052, -101.36100, 17.49150, -412010, 1833.00000, -206.00000, 917.00000, 1.44806, 0.12817, -0.03052, -101.36100, 17.49150, -43.95300

11640, 1833.00000, -209.00000, 915.00000, 1.44806, 0.12817, 0.03052, -103.30450, 17.64100, -411680, 1835.00000, -208.00000, 916.00000, 1.44806, 0.12817, 0.03052, -101.06200, 18.08950, -411720, 1832.00000, -211.00000, 913.00000, 1.44806, 0.00610, 0.03052, -101.66000, 16.44500, -411760, 1838.00000, -206.00000, 913.00000, 1.44806, 0.12817, 0.03052, -101.66000, 16.44500, -411810, 1834.00000, -210.00000, 911.00000, 1.57013, 0.12817, -0.03052, -102.70650, 15.69750, -11850, 1837.00000, -210.00000, 912.00000, 1.50909, 0.06714, -0.03052, -99.71650, 21.37850, -411890, 1838.00000, -210.00000, 912.00000, 1.44806, 0.06714, 0.03052, -99.71650, 21.37850, -4511930, 1834.00000, -207.00000, 915.00000, 1.50909, 0.00610, 0.03052, -101.66000, 15.99650, -411970, 1832.00000, -206.00000, 915.00000, 1.44806, 0.06714, 0.03052, -101.36100, 17.49150, -412010, 1833.00000, -206.00000, 917.00000, 1.44806, 0.12817, -0.03052, -101.36100, 17.49150, -43.95300

11680, 1835.00000, -208.00000, 916.00000, 1.44806, 0.12817, 0.03052, -101.06200, 18.08950, -411720, 1832.00000, -211.00000, 913.00000, 1.44806, 0.00610, 0.03052, -101.66000, 16.44500, -411760, 1838.00000, -206.00000, 913.00000, 1.44806, 0.12817, 0.03052, -101.66000, 16.44500, -411810, 1834.00000, -210.00000, 911.00000, 1.57013, 0.12817, -0.03052, -102.70650, 15.69750, -11850, 1837.00000, -210.00000, 912.00000, 1.50909, 0.06714, -0.03052, -99.71650, 21.37850, -411890, 1838.00000, -210.00000, 912.00000, 1.44806, 0.06714, 0.03052, -99.71650, 21.37850, -4511930, 1834.00000, -207.00000, 915.00000, 1.50909, 0.00610, 0.03052, -101.66000, 15.99650, -411970, 1832.00000, -206.00000, 915.00000, 1.44806, 0.06714, 0.03052, -101.36100, 17.49150, -412010, 1833.00000, -206.00000, 917.00000, 1.44806, 0.12817, -0.03052, -101.36100, 17.49150, -43.95300

11720, 1832.00000, -211.00000, 913.00000, 1.44806, 0.00610, 0.03052, -101.66000, 16.44500, -411760, 1838.00000, -206.00000, 913.00000, 1.44806, 0.12817, 0.03052, -101.66000, 16.44500, -411810, 1834.00000, -210.00000, 911.00000, 1.57013, 0.12817, -0.03052, -102.70650, 15.69750, -11850, 1837.00000, -210.00000, 912.00000, 1.50909, 0.06714, -0.03052, -99.71650, 21.37850, -411890, 1838.00000, -210.00000, 912.00000, 1.44806, 0.06714, 0.03052, -99.71650, 21.37850, -4511930, 1834.00000, -207.00000, 915.00000, 1.50909, 0.00610, 0.03052, -101.66000, 15.99650, -411970, 1832.00000, -206.00000, 915.00000, 1.44806, 0.06714, 0.03052, -101.36100, 17.49150, -412010, 1833.00000, -206.00000, 917.00000, 1.44806, 0.12817, -0.03052, -101.36100, 17.49150, -43.95300

11760, 1838.00000, -206.00000, 913.00000, 1.44806, 0.12817, 0.03052, -101.66000, 16.44500, -411810, 1834.00000, -210.00000, 911.00000, 1.57013, 0.12817, -0.03052, -102.70650, 15.69750, -11850, 1837.00000, -210.00000, 912.00000, 1.50909, 0.06714, -0.03052, -99.71650, 21.37850, -411890, 1838.00000, -210.00000, 912.00000, 1.44806, 0.06714, 0.03052, -99.71650, 21.37850, -4511930, 1834.00000, -207.00000, 915.00000, 1.50909, 0.00610, 0.03052, -101.66000, 15.99650, -411970, 1832.00000, -206.00000, 915.00000, 1.44806, 0.06714, 0.03052, -101.36100, 17.49150, -412010, 1833.00000, -206.00000, 917.00000, 1.44806, 0.12817, -0.03052, -101.36100, 17.49150, -43.95300

11810, 1834.00000, -210.00000, 911.00000, 1.57013, 0.12817, -0.03052, -102.70650, 15.69750, -11850, 1837.00000, -210.00000, 912.00000, 1.50909, 0.06714, -0.03052, -99.71650, 21.37850, -411890, 1838.00000, -210.00000, 912.00000, 1.44806, 0.06714, 0.03052, -99.71650, 21.37850, -4511930, 1834.00000, -207.00000, 915.00000, 1.50909, 0.00610, 0.03052, -101.66000, 15.99650, -411970, 1832.00000, -206.00000, 915.00000, 1.44806, 0.06714, 0.03052, -101.36100, 17.49150, -412010, 1833.00000, -206.00000, 917.00000, 1.44806, 0.12817, -0.03052, -101.36100, 17.49150, -43.95300

11850, 1837.00000, -210.00000, 912.00000, 1.50909, 0.06714, -0.03052, -99.71650, 21.37850, -411890, 1838.00000, -210.00000, 912.00000, 1.44806, 0.06714, 0.03052, -99.71650, 21.37850, -4511930, 1834.00000, -207.00000, 915.00000, 1.50909, 0.00610, 0.03052, -101.66000, 15.99650, -411970, 1832.00000, -206.00000, 915.00000, 1.44806, 0.06714, 0.03052, -101.36100, 17.49150, -412010, 1833.00000, -206.00000, 917.00000, 1.44806, 0.12817, -0.03052, -101.36100, 17.49150, -43.95300

11890, 1838.00000, -210.00000, 912.00000, 1.44806, 0.06714, 0.03052, -99.71650, 21.37850, -4511930, 1834.00000, -207.00000, 915.00000, 1.50909, 0.00610, 0.03052, -101.66000, 15.99650, -411970, 1832.00000, -206.00000, 915.00000, 1.44806, 0.06714, 0.03052, -101.36100, 17.49150, -412010, 1833.00000, -206.00000, 917.00000, 1.44806, 0.12817, -0.03052, -101.36100, 17.49150, -43.95300

11930, 1834.00000, -207.00000, 915.00000, 1.50909, 0.00610, 0.03052, -101.66000, 15.99650, -411970, 1832.00000, -206.00000, 915.00000, 1.44806, 0.06714, 0.03052, -101.36100, 17.49150, -412010, 1833.00000, -206.00000, 917.00000, 1.44806, 0.12817, -0.03052, -101.36100, 17.49150, -43.95300

11970, 1832.00000, -206.00000, 915.00000, 1.44806, 0.06714, 0.03052, -101.36100, 17.49150, -412010, 1833.00000, -206.00000, 917.00000, 1.44806, 0.12817, -0.03052, -101.36100, 17.49150, -43.95300

12010, 1833.00000, -206.00000, 917.00000, 1.44806, 0.12817, -0.03052, -101.36100, 17.49150, -43.95300

12137, 1838.00000, -206.00000, 917.00000, 1.50909, 0.06714, -0.03052, -99.71650, 22.57450, -412177, 1839.00000, -211.00000, 913.00000, 1.50909, 0.06714, 0.03052, -99.71650, 22.57450, -4712217, 1835.00000, -210.00000, 914.00000, 1.38702, 0.06714, 0.03052, -99.71650, 22.57450, -4712257, 1833.00000, -207.00000, 913.00000, 1.44806, -0.05493, -0.03052, -99.71650, 22.57450, -12297, 1820.00000, -204.00000, 903.00000, 1.69220, 0.06714, -0.09155, -101.51050, 17.34200, -12337, 1827.00000, -210.00000, 913.00000, 1.44806, 0.12817, -0.03052, -101.06200, 17.64100, -12377, 1837.00000, -203.00000, 914.00000, 1.50909, 0.12817, -0.15259, -101.80950, 16.89350, -12417, 1826.00000, -209.00000, 912.00000, 1.38702, 0.00610, 0.03052, -100.61349, 18.23900, -412457, 1826.00000, -219.00000, 924.00000, 1.26495, 0.37231, 0.27466, -101.95900, 16.74400, -412497, 1835.00000, -199.00000, 915.00000, 1.57013, -0.17700, 0.03052, -101.95900, 16.74400, -12537, 1825.00000, -212.00000, 915.00000, 1.50909, -0.23804, -0.09155, -102.70650, 18.23900, 12577, 1845.00000, -203.00000, 903.00000, 1.50909, 0.25024, -0.03052, -102.70650, 18.23900, -12617, 1839.00000, -207.00000, 908.00000, 1.57013, 0.12817, 0.03052, -102.70650, 18.23900, -412665, 1829.00000, -209.00000, 917.00000, 1.50909, 0.18921, 0.03052, -100.91250, 17.49150, -412705, 1830.00000, -207.00000, 921.00000, 1.50909, 0.12817, 0.03052, -101.51050, 17.64100, -412745, 1833.00000, -211.00000, 915.00000, 1.50909, 0.25024, 0.09155, -101.51050, 17.64100, -412785, 1833.00000, -209.00000, 909.00000, 1.50909, -0.11597, -0.15259, -101.95900, 17.19250, 12825, 1838.00000, -208.00000, 911.00000, 1.50909, 0.00610, -0.03052, -102.70650, 18.23900, -12865, 1842.00000, -207.00000, 915.00000, 1.38702, 0.25024, 0.15259, -101.51050, 18.08950, -412916, 1839.00000, -208.00000, 917.00000, 1.50909, 0.12817, 0.09155, -101.51050, 18.08950, -412956, 1833.00000, -209.00000, 923.00000, 1.44806, -0.11597, -0.03052, -101.51050, 18.08950, 12996, 1836.00000, -209.00000, 916.00000, 1.32599, 0.12817, 0.15259, -101.51050, 18.08950, -413036, 1836.00000, -204.00000, 907.00000, 1.57013, -0.11597, -0.09155, -102.55700, 16.59450, 13076, 1836.00000, -207.00000, 909.00000, 1.57013, 0.06714, -0.03052, -100.61349, 15.99650, -13116, 1833.00000, -205.00000, 915.00000, 1.50909, 0.25024, 0.09155, -101.51050, 16.59450, -43.80350

12177, 1839.00000, -211.00000, 913.00000, 1.50909, 0.06714, 0.03052, -99.71650, 22.57450, -4712217, 1835.00000, -210.00000, 914.00000, 1.38702, 0.06714, 0.03052, -99.71650, 22.57450, -4712257, 1833.00000, -207.00000, 913.00000, 1.44806, -0.05493, -0.03052, -99.71650, 22.57450, -12297, 1820.00000, -204.00000, 903.00000, 1.69220, 0.06714, -0.09155, -101.51050, 17.34200, -12337, 1827.00000, -210.00000, 913.00000, 1.44806, 0.12817, -0.03052, -101.06200, 17.64100, -12377, 1837.00000, -203.00000, 914.00000, 1.50909, 0.12817, -0.15259, -101.80950, 16.89350, -12417, 1826.00000, -209.00000, 912.00000, 1.38702, 0.00610, 0.03052, -100.61349, 18.23900, -412457, 1826.00000, -219.00000, 924.00000, 1.26495, 0.37231, 0.27466, -101.95900, 16.74400, -412497, 1835.00000, -199.00000, 915.00000, 1.57013, -0.17700, 0.03052, -101.95900, 16.74400, -12537, 1825.00000, -212.00000, 915.00000, 1.50909, -0.23804, -0.09155, -102.70650, 18.23900, 12577, 1845.00000, -203.00000, 903.00000, 1.50909, 0.25024, -0.03052, -102.70650, 18.23900, -12617, 1839.00000, -207.00000, 908.00000, 1.57013, 0.12817, 0.03052, -102.70650, 18.23900, -412665, 1829.00000, -209.00000, 917.00000, 1.50909, 0.18921, 0.03052, -100.91250, 17.49150, -412705, 1830.00000, -207.00000, 921.00000, 1.50909, 0.12817, 0.03052, -101.51050, 17.64100, -412745, 1833.00000, -211.00000, 915.00000, 1.50909, 0.25024, 0.09155, -101.51050, 17.64100, -412785, 1833.00000, -209.00000, 909.00000, 1.50909, -0.11597, -0.15259, -101.95900, 17.19250, 12825, 1838.00000, -208.00000, 911.00000, 1.50909, 0.00610, -0.03052, -102.70650, 18.23900, -12865, 1842.00000, -207.00000, 915.00000, 1.38702, 0.25024, 0.15259, -101.51050, 18.08950, -412916, 1839.00000, -208.00000, 917.00000, 1.50909, 0.12817, 0.09155, -101.51050, 18.08950, -412956, 1833.00000, -209.00000, 923.00000, 1.44806, -0.11597, -0.03052, -101.51050, 18.08950, 12996, 1836.00000, -209.00000, 916.00000, 1.32599, 0.12817, 0.15259, -101.51050, 18.08950, -413036, 1836.00000, -204.00000, 907.00000, 1.57013, -0.11597, -0.09155, -102.55700, 16.59450, 13076, 1836.00000, -207.00000, 909.00000, 1.57013, 0.06714, -0.03052, -100.61349, 15.99650, -13116, 1833.00000, -205.00000, 915.00000, 1.50909, 0.25024, 0.09155, -101.51050, 16.59450, -43.80350

12217, 1835.00000, -210.00000, 914.00000, 1.38702, 0.06714, 0.03052, -99.71650, 22.57450, -4712257, 1833.00000, -207.00000, 913.00000, 1.44806, -0.05493, -0.03052, -99.71650, 22.57450, -12297, 1820.00000, -204.00000, 903.00000, 1.69220, 0.06714, -0.09155, -101.51050, 17.34200, -12337, 1827.00000, -210.00000, 913.00000, 1.44806, 0.12817, -0.03052, -101.06200, 17.64100, -12377, 1837.00000, -203.00000, 914.00000, 1.50909, 0.12817, -0.15259, -101.80950, 16.89350, -12417, 1826.00000, -209.00000, 912.00000, 1.38702, 0.00610, 0.03052, -100.61349, 18.23900, -412457, 1826.00000, -219.00000, 924.00000, 1.26495, 0.37231, 0.27466, -101.95900, 16.74400, -412497, 1835.00000, -199.00000, 915.00000, 1.57013, -0.17700, 0.03052, -101.95900, 16.74400, -12537, 1825.00000, -212.00000, 915.00000, 1.50909, -0.23804, -0.09155, -102.70650, 18.23900, 12577, 1845.00000, -203.00000, 903.00000, 1.50909, 0.25024, -0.03052, -102.70650, 18.23900, -12617, 1839.00000, -207.00000, 908.00000, 1.57013, 0.12817, 0.03052, -102.70650, 18.23900, -412665, 1829.00000, -209.00000, 917.00000, 1.50909, 0.18921, 0.03052, -100.91250, 17.49150, -412705, 1830.00000, -207.00000, 921.00000, 1.50909, 0.12817, 0.03052, -101.51050, 17.64100, -412745, 1833.00000, -211.00000, 915.00000, 1.50909, 0.25024, 0.09155, -101.51050, 17.64100, -412785, 1833.00000, -209.00000, 909.00000, 1.50909, -0.11597, -0.15259, -101.95900, 17.19250, 12825, 1838.00000, -208.00000, 911.00000, 1.50909, 0.00610, -0.03052, -102.70650, 18.23900, -12865, 1842.00000, -207.00000, 915.00000, 1.38702, 0.25024, 0.15259, -101.51050, 18.08950, -412916, 1839.00000, -208.00000, 917.00000, 1.50909, 0.12817, 0.09155, -101.51050, 18.08950, -412956, 1833.00000, -209.00000, 923.00000, 1.44806, -0.11597, -0.03052, -101.51050, 18.08950, 12996, 1836.00000, -209.00000, 916.00000, 1.32599, 0.12817, 0.15259, -101.51050, 18.08950, -413036, 1836.00000, -204.00000, 907.00000, 1.57013, -0.11597, -0.09155, -102.55700, 16.59450, 13076, 1836.00000, -207.00000, 909.00000, 1.57013, 0.06714, -0.03052, -100.61349, 15.99650, -13116, 1833.00000, -205.00000, 915.00000, 1.50909, 0.25024, 0.09155, -101.51050, 16.59450, -43.80350

12257, 1833.00000, -207.00000, 913.00000, 1.44806, -0.05493, -0.03052, -99.71650, 22.57450, -12297, 1820.00000, -204.00000, 903.00000, 1.69220, 0.06714, -0.09155, -101.51050, 17.34200, -12337, 1827.00000, -210.00000, 913.00000, 1.44806, 0.12817, -0.03052, -101.06200, 17.64100, -12377, 1837.00000, -203.00000, 914.00000, 1.50909, 0.12817, -0.15259, -101.80950, 16.89350, -12417, 1826.00000, -209.00000, 912.00000, 1.38702, 0.00610, 0.03052, -100.61349, 18.23900, -412457, 1826.00000, -219.00000, 924.00000, 1.26495, 0.37231, 0.27466, -101.95900, 16.74400, -412497, 1835.00000, -199.00000, 915.00000, 1.57013, -0.17700, 0.03052, -101.95900, 16.74400, -12537, 1825.00000, -212.00000, 915.00000, 1.50909, -0.23804, -0.09155, -102.70650, 18.23900, 12577, 1845.00000, -203.00000, 903.00000, 1.50909, 0.25024, -0.03052, -102.70650, 18.23900, -12617, 1839.00000, -207.00000, 908.00000, 1.57013, 0.12817, 0.03052, -102.70650, 18.23900, -412665, 1829.00000, -209.00000, 917.00000, 1.50909, 0.18921, 0.03052, -100.91250, 17.49150, -412705, 1830.00000, -207.00000, 921.00000, 1.50909, 0.12817, 0.03052, -101.51050, 17.64100, -412745, 1833.00000, -211.00000, 915.00000, 1.50909, 0.25024, 0.09155, -101.51050, 17.64100, -412785, 1833.00000, -209.00000, 909.00000, 1.50909, -0.11597, -0.15259, -101.95900, 17.19250, 12825, 1838.00000, -208.00000, 911.00000, 1.50909, 0.00610, -0.03052, -102.70650, 18.23900, -12865, 1842.00000, -207.00000, 915.00000, 1.38702, 0.25024, 0.15259, -101.51050, 18.08950, -412916, 1839.00000, -208.00000, 917.00000, 1.50909, 0.12817, 0.09155, -101.51050, 18.08950, -412956, 1833.00000, -209.00000, 923.00000, 1.44806, -0.11597, -0.03052, -101.51050, 18.08950, 12996, 1836.00000, -209.00000, 916.00000, 1.32599, 0.12817, 0.15259, -101.51050, 18.08950, -413036, 1836.00000, -204.00000, 907.00000, 1.57013, -0.11597, -0.09155, -102.55700, 16.59450, 13076, 1836.00000, -207.00000, 909.00000, 1.57013, 0.06714, -0.03052, -100.61349, 15.99650, -13116, 1833.00000, -205.00000, 915.00000, 1.50909, 0.25024, 0.09155, -101.51050, 16.59450, -43.80350

12297, 1820.00000, -204.00000, 903.00000, 1.69220, 0.06714, -0.09155, -101.51050, 17.34200, -12337, 1827.00000, -210.00000, 913.00000, 1.44806, 0.12817, -0.03052, -101.06200, 17.64100, -12377, 1837.00000, -203.00000, 914.00000, 1.50909, 0.12817, -0.15259, -101.80950, 16.89350, -12417, 1826.00000, -209.00000, 912.00000, 1.38702, 0.00610, 0.03052, -100.61349, 18.23900, -412457, 1826.00000, -219.00000, 924.00000, 1.26495, 0.37231, 0.27466, -101.95900, 16.74400, -412497, 1835.00000, -199.00000, 915.00000, 1.57013, -0.17700, 0.03052, -101.95900, 16.74400, -12537, 1825.00000, -212.00000, 915.00000, 1.50909, -0.23804, -0.09155, -102.70650, 18.23900, 12577, 1845.00000, -203.00000, 903.00000, 1.50909, 0.25024, -0.03052, -102.70650, 18.23900, -12617, 1839.00000, -207.00000, 908.00000, 1.57013, 0.12817, 0.03052, -102.70650, 18.23900, -412665, 1829.00000, -209.00000, 917.00000, 1.50909, 0.18921, 0.03052, -100.91250, 17.49150, -412705, 1830.00000, -207.00000, 921.00000, 1.50909, 0.12817, 0.03052, -101.51050, 17.64100, -412745, 1833.00000, -211.00000, 915.00000, 1.50909, 0.25024, 0.09155, -101.51050, 17.64100, -412785, 1833.00000, -209.00000, 909.00000, 1.50909, -0.11597, -0.15259, -101.95900, 17.19250, 12825, 1838.00000, -208.00000, 911.00000, 1.50909, 0.00610, -0.03052, -102.70650, 18.23900, -12865, 1842.00000, -207.00000, 915.00000, 1.38702, 0.25024, 0.15259, -101.51050, 18.08950, -412916, 1839.00000, -208.00000, 917.00000, 1.50909, 0.12817, 0.09155, -101.51050, 18.08950, -412956, 1833.00000, -209.00000, 923.00000, 1.44806, -0.11597, -0.03052, -101.51050, 18.08950, 12996, 1836.00000, -209.00000, 916.00000, 1.32599, 0.12817, 0.15259, -101.51050, 18.08950, -413036, 1836.00000, -204.00000, 907.00000, 1.57013, -0.11597, -0.09155, -102.55700, 16.59450, 13076, 1836.00000, -207.00000, 909.00000, 1.57013, 0.06714, -0.03052, -100.61349, 15.99650, -13116, 1833.00000, -205.00000, 915.00000, 1.50909, 0.25024, 0.09155, -101.51050, 16.59450, -43.80350

12337, 1827.00000, -210.00000, 913.00000, 1.44806, 0.12817, -0.03052, -101.06200, 17.64100, -12377, 1837.00000, -203.00000, 914.00000, 1.50909, 0.12817, -0.15259, -101.80950, 16.89350, -12417, 1826.00000, -209.00000, 912.00000, 1.38702, 0.00610, 0.03052, -100.61349, 18.23900, -412457, 1826.00000, -219.00000, 924.00000, 1.26495, 0.37231, 0.27466, -101.95900, 16.74400, -412497, 1835.00000, -199.00000, 915.00000, 1.57013, -0.17700, 0.03052, -101.95900, 16.74400, -12537, 1825.00000, -212.00000, 915.00000, 1.50909, -0.23804, -0.09155, -102.70650, 18.23900, 12577, 1845.00000, -203.00000, 903.00000, 1.50909, 0.25024, -0.03052, -102.70650, 18.23900, -12617, 1839.00000, -207.00000, 908.00000, 1.57013, 0.12817, 0.03052, -102.70650, 18.23900, -412665, 1829.00000, -209.00000, 917.00000, 1.50909, 0.18921, 0.03052, -100.91250, 17.49150, -412705, 1830.00000, -207.00000, 921.00000, 1.50909, 0.12817, 0.03052, -101.51050, 17.64100, -412745, 1833.00000, -211.00000, 915.00000, 1.50909, 0.25024, 0.09155, -101.51050, 17.64100, -412785, 1833.00000, -209.00000, 909.00000, 1.50909, -0.11597, -0.15259, -101.95900, 17.19250, 12825, 1838.00000, -208.00000, 911.00000, 1.50909, 0.00610, -0.03052, -102.70650, 18.23900, -12865, 1842.00000, -207.00000, 915.00000, 1.38702, 0.25024, 0.15259, -101.51050, 18.08950, -412916, 1839.00000, -208.00000, 917.00000, 1.50909, 0.12817, 0.09155, -101.51050, 18.08950, -412956, 1833.00000, -209.00000, 923.00000, 1.44806, -0.11597, -0.03052, -101.51050, 18.08950, 12996, 1836.00000, -209.00000, 916.00000, 1.32599, 0.12817, 0.15259, -101.51050, 18.08950, -413036, 1836.00000, -204.00000, 907.00000, 1.57013, -0.11597, -0.09155, -102.55700, 16.59450, 13076, 1836.00000, -207.00000, 909.00000, 1.57013, 0.06714, -0.03052, -100.61349, 15.99650, -13116, 1833.00000, -205.00000, 915.00000, 1.50909, 0.25024, 0.09155, -101.51050, 16.59450, -43.80350

12377, 1837.00000, -203.00000, 914.00000, 1.50909, 0.12817, -0.15259, -101.80950, 16.89350, -12417, 1826.00000, -209.00000, 912.00000, 1.38702, 0.00610, 0.03052, -100.61349, 18.23900, -412457, 1826.00000, -219.00000, 924.00000, 1.26495, 0.37231, 0.27466, -101.95900, 16.74400, -412497, 1835.00000, -199.00000, 915.00000, 1.57013, -0.17700, 0.03052, -101.95900, 16.74400, -12537, 1825.00000, -212.00000, 915.00000, 1.50909, -0.23804, -0.09155, -102.70650, 18.23900, 12577, 1845.00000, -203.00000, 903.00000, 1.50909, 0.25024, -0.03052, -102.70650, 18.23900, -12617, 1839.00000, -207.00000, 908.00000, 1.57013, 0.12817, 0.03052, -102.70650, 18.23900, -412665, 1829.00000, -209.00000, 917.00000, 1.50909, 0.18921, 0.03052, -100.91250, 17.49150, -412705, 1830.00000, -207.00000, 921.00000, 1.50909, 0.12817, 0.03052, -101.51050, 17.64100, -412745, 1833.00000, -211.00000, 915.00000, 1.50909, 0.25024, 0.09155, -101.51050, 17.64100, -412785, 1833.00000, -209.00000, 909.00000, 1.50909, -0.11597, -0.15259, -101.95900, 17.19250, 12825, 1838.00000, -208.00000, 911.00000, 1.50909, 0.00610, -0.03052, -102.70650, 18.23900, -12865, 1842.00000, -207.00000, 915.00000, 1.38702, 0.25024, 0.15259, -101.51050, 18.08950, -412916, 1839.00000, -208.00000, 917.00000, 1.50909, 0.12817, 0.09155, -101.51050, 18.08950, -412956, 1833.00000, -209.00000, 923.00000, 1.44806, -0.11597, -0.03052, -101.51050, 18.08950, 12996, 1836.00000, -209.00000, 916.00000, 1.32599, 0.12817, 0.15259, -101.51050, 18.08950, -413036, 1836.00000, -204.00000, 907.00000, 1.57013, -0.11597, -0.09155, -102.55700, 16.59450, 13076, 1836.00000, -207.00000, 909.00000, 1.57013, 0.06714, -0.03052, -100.61349, 15.99650, -13116, 1833.00000, -205.00000, 915.00000, 1.50909, 0.25024, 0.09155, -101.51050, 16.59450, -43.80350

12417, 1826.00000, -209.00000, 912.00000, 1.38702, 0.00610, 0.03052, -100.61349, 18.23900, -412457, 1826.00000, -219.00000, 924.00000, 1.26495, 0.37231, 0.27466, -101.95900, 16.74400, -412497, 1835.00000, -199.00000, 915.00000, 1.57013, -0.17700, 0.03052, -101.95900, 16.74400, -12537, 1825.00000, -212.00000, 915.00000, 1.50909, -0.23804, -0.09155, -102.70650, 18.23900, 12577, 1845.00000, -203.00000, 903.00000, 1.50909, 0.25024, -0.03052, -102.70650, 18.23900, -12617, 1839.00000, -207.00000, 908.00000, 1.57013, 0.12817, 0.03052, -102.70650, 18.23900, -412665, 1829.00000, -209.00000, 917.00000, 1.50909, 0.18921, 0.03052, -100.91250, 17.49150, -412705, 1830.00000, -207.00000, 921.00000, 1.50909, 0.12817, 0.03052, -101.51050, 17.64100, -412745, 1833.00000, -211.00000, 915.00000, 1.50909, 0.25024, 0.09155, -101.51050, 17.64100, -412785, 1833.00000, -209.00000, 909.00000, 1.50909, -0.11597, -0.15259, -101.95900, 17.19250, 12825, 1838.00000, -208.00000, 911.00000, 1.50909, 0.00610, -0.03052, -102.70650, 18.23900, -12865, 1842.00000, -207.00000, 915.00000, 1.38702, 0.25024, 0.15259, -101.51050, 18.08950, -412916, 1839.00000, -208.00000, 917.00000, 1.50909, 0.12817, 0.09155, -101.51050, 18.08950, -412956, 1833.00000, -209.00000, 923.00000, 1.44806, -0.11597, -0.03052, -101.51050, 18.08950, 12996, 1836.00000, -209.00000, 916.00000, 1.32599, 0.12817, 0.15259, -101.51050, 18.08950, -413036, 1836.00000, -204.00000, 907.00000, 1.57013, -0.11597, -0.09155, -102.55700, 16.59450, 13076, 1836.00000, -207.00000, 909.00000, 1.57013, 0.06714, -0.03052, -100.61349, 15.99650, -13116, 1833.00000, -205.00000, 915.00000, 1.50909, 0.25024, 0.09155, -101.51050, 16.59450, -43.80350

12457, 1826.00000, -219.00000, 924.00000, 1.26495, 0.37231, 0.27466, -101.95900, 16.74400, -412497, 1835.00000, -199.00000, 915.00000, 1.57013, -0.17700, 0.03052, -101.95900, 16.74400, -12537, 1825.00000, -212.00000, 915.00000, 1.50909, -0.23804, -0.09155, -102.70650, 18.23900, 12577, 1845.00000, -203.00000, 903.00000, 1.50909, 0.25024, -0.03052, -102.70650, 18.23900, -12617, 1839.00000, -207.00000, 908.00000, 1.57013, 0.12817, 0.03052, -102.70650, 18.23900, -412665, 1829.00000, -209.00000, 917.00000, 1.50909, 0.18921, 0.03052, -100.91250, 17.49150, -412705, 1830.00000, -207.00000, 921.00000, 1.50909, 0.12817, 0.03052, -101.51050, 17.64100, -412745, 1833.00000, -211.00000, 915.00000, 1.50909, 0.25024, 0.09155, -101.51050, 17.64100, -412785, 1833.00000, -209.00000, 909.00000, 1.50909, -0.11597, -0.15259, -101.95900, 17.19250, 12825, 1838.00000, -208.00000, 911.00000, 1.50909, 0.00610, -0.03052, -102.70650, 18.23900, -12865, 1842.00000, -207.00000, 915.00000, 1.38702, 0.25024, 0.15259, -101.51050, 18.08950, -412916, 1839.00000, -208.00000, 917.00000, 1.50909, 0.12817, 0.09155, -101.51050, 18.08950, -412956, 1833.00000, -209.00000, 923.00000, 1.44806, -0.11597, -0.03052, -101.51050, 18.08950, 12996, 1836.00000, -209.00000, 916.00000, 1.32599, 0.12817, 0.15259, -101.51050, 18.08950, -413036, 1836.00000, -204.00000, 907.00000, 1.57013, -0.11597, -0.09155, -102.55700, 16.59450, 13076, 1836.00000, -207.00000, 909.00000, 1.57013, 0.06714, -0.03052, -100.61349, 15.99650, -13116, 1833.00000, -205.00000, 915.00000, 1.50909, 0.25024, 0.09155, -101.51050, 16.59450, -43.80350

12497, 1835.00000, -199.00000, 915.00000, 1.57013, -0.17700, 0.03052, -101.95900, 16.74400, -12537, 1825.00000, -212.00000, 915.00000, 1.50909, -0.23804, -0.09155, -102.70650, 18.23900, 12577, 1845.00000, -203.00000, 903.00000, 1.50909, 0.25024, -0.03052, -102.70650, 18.23900, -12617, 1839.00000, -207.00000, 908.00000, 1.57013, 0.12817, 0.03052, -102.70650, 18.23900, -412665, 1829.00000, -209.00000, 917.00000, 1.50909, 0.18921, 0.03052, -100.91250, 17.49150, -412705, 1830.00000, -207.00000, 921.00000, 1.50909, 0.12817, 0.03052, -101.51050, 17.64100, -412745, 1833.00000, -211.00000, 915.00000, 1.50909, 0.25024, 0.09155, -101.51050, 17.64100, -412785, 1833.00000, -209.00000, 909.00000, 1.50909, -0.11597, -0.15259, -101.95900, 17.19250, 12825, 1838.00000, -208.00000, 911.00000, 1.50909, 0.00610, -0.03052, -102.70650, 18.23900, -12865, 1842.00000, -207.00000, 915.00000, 1.38702, 0.25024, 0.15259, -101.51050, 18.08950, -412916, 1839.00000, -208.00000, 917.00000, 1.50909, 0.12817, 0.09155, -101.51050, 18.08950, -412956, 1833.00000, -209.00000, 923.00000, 1.44806, -0.11597, -0.03052, -101.51050, 18.08950, 12996, 1836.00000, -209.00000, 916.00000, 1.32599, 0.12817, 0.15259, -101.51050, 18.08950, -413036, 1836.00000, -204.00000, 907.00000, 1.57013, -0.11597, -0.09155, -102.55700, 16.59450, 13076, 1836.00000, -207.00000, 909.00000, 1.57013, 0.06714, -0.03052, -100.61349, 15.99650, -13116, 1833.00000, -205.00000, 915.00000, 1.50909, 0.25024, 0.09155, -101.51050, 16.59450, -43.80350

12537, 1825.00000, -212.00000, 915.00000, 1.50909, -0.23804, -0.09155, -102.70650, 18.23900, 12577, 1845.00000, -203.00000, 903.00000, 1.50909, 0.25024, -0.03052, -102.70650, 18.23900, -12617, 1839.00000, -207.00000, 908.00000, 1.57013, 0.12817, 0.03052, -102.70650, 18.23900, -412665, 1829.00000, -209.00000, 917.00000, 1.50909, 0.18921, 0.03052, -100.91250, 17.49150, -412705, 1830.00000, -207.00000, 921.00000, 1.50909, 0.12817, 0.03052, -101.51050, 17.64100, -412745, 1833.00000, -211.00000, 915.00000, 1.50909, 0.25024, 0.09155, -101.51050, 17.64100, -412785, 1833.00000, -209.00000, 909.00000, 1.50909, -0.11597, -0.15259, -101.95900, 17.19250, 12825, 1838.00000, -208.00000, 911.00000, 1.50909, 0.00610, -0.03052, -102.70650, 18.23900, -12865, 1842.00000, -207.00000, 915.00000, 1.38702, 0.25024, 0.15259, -101.51050, 18.08950, -412916, 1839.00000, -208.00000, 917.00000, 1.50909, 0.12817, 0.09155, -101.51050, 18.08950, -412956, 1833.00000, -209.00000, 923.00000, 1.44806, -0.11597, -0.03052, -101.51050, 18.08950, 12996, 1836.00000, -209.00000, 916.00000, 1.32599, 0.12817, 0.15259, -101.51050, 18.08950, -413036, 1836.00000, -204.00000, 907.00000, 1.57013, -0.11597, -0.09155, -102.55700, 16.59450, 13076, 1836.00000, -207.00000, 909.00000, 1.57013, 0.06714, -0.03052, -100.61349, 15.99650, -13116, 1833.00000, -205.00000, 915.00000, 1.50909, 0.25024, 0.09155, -101.51050, 16.59450, -43.80350

12577, 1845.00000, -203.00000, 903.00000, 1.50909, 0.25024, -0.03052, -102.70650, 18.23900, -12617, 1839.00000, -207.00000, 908.00000, 1.57013, 0.12817, 0.03052, -102.70650, 18.23900, -412665, 1829.00000, -209.00000, 917.00000, 1.50909, 0.18921, 0.03052, -100.91250, 17.49150, -412705, 1830.00000, -207.00000, 921.00000, 1.50909, 0.12817, 0.03052, -101.51050, 17.64100, -412745, 1833.00000, -211.00000, 915.00000, 1.50909, 0.25024, 0.09155, -101.51050, 17.64100, -412785, 1833.00000, -209.00000, 909.00000, 1.50909, -0.11597, -0.15259, -101.95900, 17.19250, 12825, 1838.00000, -208.00000, 911.00000, 1.50909, 0.00610, -0.03052, -102.70650, 18.23900, -12865, 1842.00000, -207.00000, 915.00000, 1.38702, 0.25024, 0.15259, -101.51050, 18.08950, -412916, 1839.00000, -208.00000, 917.00000, 1.50909, 0.12817, 0.09155, -101.51050, 18.08950, -412956, 1833.00000, -209.00000, 923.00000, 1.44806, -0.11597, -0.03052, -101.51050, 18.08950, 12996, 1836.00000, -209.00000, 916.00000, 1.32599, 0.12817, 0.15259, -101.51050, 18.08950, -413036, 1836.00000, -204.00000, 907.00000, 1.57013, -0.11597, -0.09155, -102.55700, 16.59450, 13076, 1836.00000, -207.00000, 909.00000, 1.57013, 0.06714, -0.03052, -100.61349, 15.99650, -13116, 1833.00000, -205.00000, 915.00000, 1.50909, 0.25024, 0.09155, -101.51050, 16.59450, -43.80350

12617, 1839.00000, -207.00000, 908.00000, 1.57013, 0.12817, 0.03052, -102.70650, 18.23900, -412665, 1829.00000, -209.00000, 917.00000, 1.50909, 0.18921, 0.03052, -100.91250, 17.49150, -412705, 1830.00000, -207.00000, 921.00000, 1.50909, 0.12817, 0.03052, -101.51050, 17.64100, -412745, 1833.00000, -211.00000, 915.00000, 1.50909, 0.25024, 0.09155, -101.51050, 17.64100, -412785, 1833.00000, -209.00000, 909.00000, 1.50909, -0.11597, -0.15259, -101.95900, 17.19250, 12825, 1838.00000, -208.00000, 911.00000, 1.50909, 0.00610, -0.03052, -102.70650, 18.23900, -12865, 1842.00000, -207.00000, 915.00000, 1.38702, 0.25024, 0.15259, -101.51050, 18.08950, -412916, 1839.00000, -208.00000, 917.00000, 1.50909, 0.12817, 0.09155, -101.51050, 18.08950, -412956, 1833.00000, -209.00000, 923.00000, 1.44806, -0.11597, -0.03052, -101.51050, 18.08950, 12996, 1836.00000, -209.00000, 916.00000, 1.32599, 0.12817, 0.15259, -101.51050, 18.08950, -413036, 1836.00000, -204.00000, 907.00000, 1.57013, -0.11597, -0.09155, -102.55700, 16.59450, 13076, 1836.00000, -207.00000, 909.00000, 1.57013, 0.06714, -0.03052, -100.61349, 15.99650, -13116, 1833.00000, -205.00000, 915.00000, 1.50909, 0.25024, 0.09155, -101.51050, 16.59450, -43.80350

12665, 1829.00000, -209.00000, 917.00000, 1.50909, 0.18921, 0.03052, -100.91250, 17.49150, -412705, 1830.00000, -207.00000, 921.00000, 1.50909, 0.12817, 0.03052, -101.51050, 17.64100, -412745, 1833.00000, -211.00000, 915.00000, 1.50909, 0.25024, 0.09155, -101.51050, 17.64100, -412785, 1833.00000, -209.00000, 909.00000, 1.50909, -0.11597, -0.15259, -101.95900, 17.19250, 12825, 1838.00000, -208.00000, 911.00000, 1.50909, 0.00610, -0.03052, -102.70650, 18.23900, -12865, 1842.00000, -207.00000, 915.00000, 1.38702, 0.25024, 0.15259, -101.51050, 18.08950, -412916, 1839.00000, -208.00000, 917.00000, 1.50909, 0.12817, 0.09155, -101.51050, 18.08950, -412956, 1833.00000, -209.00000, 923.00000, 1.44806, -0.11597, -0.03052, -101.51050, 18.08950, 12996, 1836.00000, -209.00000, 916.00000, 1.32599, 0.12817, 0.15259, -101.51050, 18.08950, -413036, 1836.00000, -204.00000, 907.00000, 1.57013, -0.11597, -0.09155, -102.55700, 16.59450, 13076, 1836.00000, -207.00000, 909.00000, 1.57013, 0.06714, -0.03052, -100.61349, 15.99650, -13116, 1833.00000, -205.00000, 915.00000, 1.50909, 0.25024, 0.09155, -101.51050, 16.59450, -43.80350

12705, 1830.00000, -207.00000, 921.00000, 1.50909, 0.12817, 0.03052, -101.51050, 17.64100, -412745, 1833.00000, -211.00000, 915.00000, 1.50909, 0.25024, 0.09155, -101.51050, 17.64100, -412785, 1833.00000, -209.00000, 909.00000, 1.50909, -0.11597, -0.15259, -101.95900, 17.19250, 12825, 1838.00000, -208.00000, 911.00000, 1.50909, 0.00610, -0.03052, -102.70650, 18.23900, -12865, 1842.00000, -207.00000, 915.00000, 1.38702, 0.25024, 0.15259, -101.51050, 18.08950, -412916, 1839.00000, -208.00000, 917.00000, 1.50909, 0.12817, 0.09155, -101.51050, 18.08950, -412956, 1833.00000, -209.00000, 923.00000, 1.44806, -0.11597, -0.03052, -101.51050, 18.08950, 12996, 1836.00000, -209.00000, 916.00000, 1.32599, 0.12817, 0.15259, -101.51050, 18.08950, -413036, 1836.00000, -204.00000, 907.00000, 1.57013, -0.11597, -0.09155, -102.55700, 16.59450, 13076, 1836.00000, -207.00000, 909.00000, 1.57013, 0.06714, -0.03052, -100.61349, 15.99650, -13116, 1833.00000, -205.00000, 915.00000, 1.50909, 0.25024, 0.09155, -101.51050, 16.59450, -43.80350

12745, 1833.00000, -211.00000, 915.00000, 1.50909, 0.25024, 0.09155, -101.51050, 17.64100, -412785, 1833.00000, -209.00000, 909.00000, 1.50909, -0.11597, -0.15259, -101.95900, 17.19250, 12825, 1838.00000, -208.00000, 911.00000, 1.50909, 0.00610, -0.03052, -102.70650, 18.23900, -12865, 1842.00000, -207.00000, 915.00000, 1.38702, 0.25024, 0.15259, -101.51050, 18.08950, -412916, 1839.00000, -208.00000, 917.00000, 1.50909, 0.12817, 0.09155, -101.51050, 18.08950, -412956, 1833.00000, -209.00000, 923.00000, 1.44806, -0.11597, -0.03052, -101.51050, 18.08950, 12996, 1836.00000, -209.00000, 916.00000, 1.32599, 0.12817, 0.15259, -101.51050, 18.08950, -413036, 1836.00000, -204.00000, 907.00000, 1.57013, -0.11597, -0.09155, -102.55700, 16.59450, 13076, 1836.00000, -207.00000, 909.00000, 1.57013, 0.06714, -0.03052, -100.61349, 15.99650, -13116, 1833.00000, -205.00000, 915.00000, 1.50909, 0.25024, 0.09155, -101.51050, 16.59450, -43.80350

12785, 1833.00000, -209.00000, 909.00000, 1.50909, -0.11597, -0.15259, -101.95900, 17.19250, 12825, 1838.00000, -208.00000, 911.00000, 1.50909, 0.00610, -0.03052, -102.70650, 18.23900, -12865, 1842.00000, -207.00000, 915.00000, 1.38702, 0.25024, 0.15259, -101.51050, 18.08950, -412916, 1839.00000, -208.00000, 917.00000, 1.50909, 0.12817, 0.09155, -101.51050, 18.08950, -412956, 1833.00000, -209.00000, 923.00000, 1.44806, -0.11597, -0.03052, -101.51050, 18.08950, 12996, 1836.00000, -209.00000, 916.00000, 1.32599, 0.12817, 0.15259, -101.51050, 18.08950, -413036, 1836.00000, -204.00000, 907.00000, 1.57013, -0.11597, -0.09155, -102.55700, 16.59450, 13076, 1836.00000, -207.00000, 909.00000, 1.57013, 0.06714, -0.03052, -100.61349, 15.99650, -13116, 1833.00000, -205.00000, 915.00000, 1.50909, 0.25024, 0.09155, -101.51050, 16.59450, -43.80350

12825, 1838.00000, -208.00000, 911.00000, 1.50909, 0.00610, -0.03052, -102.70650, 18.23900, -12865, 1842.00000, -207.00000, 915.00000, 1.38702, 0.25024, 0.15259, -101.51050, 18.08950, -412916, 1839.00000, -208.00000, 917.00000, 1.50909, 0.12817, 0.09155, -101.51050, 18.08950, -412956, 1833.00000, -209.00000, 923.00000, 1.44806, -0.11597, -0.03052, -101.51050, 18.08950, 12996, 1836.00000, -209.00000, 916.00000, 1.32599, 0.12817, 0.15259, -101.51050, 18.08950, -413036, 1836.00000, -204.00000, 907.00000, 1.57013, -0.11597, -0.09155, -102.55700, 16.59450, 13076, 1836.00000, -207.00000, 909.00000, 1.57013, 0.06714, -0.03052, -100.61349, 15.99650, -13116, 1833.00000, -205.00000, 915.00000, 1.50909, 0.25024, 0.09155, -101.51050, 16.59450, -43.80350

